Data from sun_USB4F104151__1__13-22-45-762.txt Node

Date: Fri Mar 08 13:22:45 EST 2024
User: lauri
Spectrometer: USB4F10415
Trigger mode: 4
Integration Time (sec): 1,000000E-3
Scans to average: 1
Electric dark correction enabled: true
Nonlinearity correction enabled: false
Boxcar width: 0
XAxis mode: Wavelengths
Number of Pixels in Spectrum: 3648
>>>>>Begin Spectral Data<<<<<
178,204	-18,43
178,424	-18,43
178,644	-18,43
178,864	34,82
179,084	55,3
179,304	-49,15
179,524	-43,01
179,744	63,49
179,964	71,68
180,184	-10,24
180,404	30,72
180,624	8,19
180,844	-43,01
181,064	10,24
181,283	6,14
181,503	-51,2
181,723	6,14
181,943	10,24
182,163	51,2
182,383	47,1
182,602	47,1
182,822	49,15
183,042	34,82
183,262	18,43
183,482	-2,05
183,701	-8,19
183,921	6,14
184,141	53,25
184,361	88,06
184,58	34,82
184,8	34,82
185,02	38,91
185,239	-43,01
185,459	63,49
185,679	-22,53
185,898	36,86
186,118	26,62
186,338	-6,14
186,557	22,53
186,777	-34,82
186,997	-65,54
187,216	18,43
187,436	28,67
187,655	8,19
187,875	34,82
188,095	14,34
188,314	47,1
188,534	-45,06
188,753	-59,39
188,973	-6,14
189,192	38,91
189,412	57,34
189,631	14,34
189,851	26,62
190,07	51,2
190,29	-61,44
190,509	22,53
190,729	14,34
190,948	-22,53
191,168	34,82
191,387	10,24
191,607	83,97
191,826	14,34
192,045	49,15
192,265	59,39
192,484	38,91
192,704	24,58
192,923	-69,63
193,142	6,14
193,362	0
193,581	38,91
193,8	-45,06
194,02	55,3
194,239	6,14
194,458	14,34
194,678	139,26
194,897	16,38
195,116	6,14
195,335	6,14
195,555	0
195,774	14,34
195,993	-22,53
196,212	-6,14
196,432	-2,05
196,651	38,91
196,87	-16,38
197,089	30,72
197,308	-12,29
197,528	-2,05
197,747	55,3
197,966	-10,24
198,185	45,06
198,404	10,24
198,623	45,06
198,842	6,14
199,062	-6,14
199,281	47,1
199,5	-28,67
199,719	6,14
199,938	-108,54
200,157	22,53
200,376	6,14
200,595	-18,43
200,814	-10,24
201,033	77,82
201,252	-10,24
201,471	0
201,69	-34,82
201,909	14,34
202,128	-43,01
202,347	88,06
202,566	10,24
202,785	-53,25
203,004	47,1
203,223	-10,24
203,442	-40,96
203,661	36,86
203,879	2,05
204,098	-63,49
204,317	43,01
204,536	-36,86
204,755	43,01
204,974	-26,62
205,193	24,58
205,411	22,53
205,63	-26,62
205,849	-28,67
206,068	-2,05
206,287	-34,82
206,505	51,2
206,724	28,67
206,943	-20,48
207,162	-22,53
207,381	4,1
207,599	6,14
207,818	22,53
208,037	77,82
208,255	6,14
208,474	-8,19
208,693	12,29
208,911	-6,14
209,13	-67,58
209,349	22,53
209,567	-26,62
209,786	-2,05
210,005	-26,62
210,223	2,05
210,442	4,1
210,661	14,34
210,879	-10,24
211,098	-16,38
211,316	-83,97
211,535	67,58
211,753	-34,82
211,972	-59,39
212,191	28,67
212,409	4,1
212,628	-8,19
212,846	-10,24
213,065	-10,24
213,283	-59,39
213,502	94,21
213,72	69,63
213,938	10,24
214,157	6,14
214,375	-10,24
214,594	-38,91
214,812	-26,62
215,031	32,77
215,249	-14,34
215,467	-14,34
215,686	-12,29
215,904	43,01
216,122	-47,1
216,341	-6,14
216,559	69,63
216,778	-30,72
216,996	-12,29
217,214	-53,25
217,432	-10,24
217,651	10,24
217,869	22,53
218,087	28,67
218,306	4,1
218,524	10,24
218,742	-26,62
218,96	18,43
219,179	-20,48
219,397	28,67
219,615	-26,62
219,833	4,1
220,051	-10,24
220,27	45,06
220,488	-55,3
220,706	36,86
220,924	-47,1
221,142	-10,24
221,36	-34,82
221,578	22,53
221,796	-69,63
222,015	-77,82
222,233	-2,05
222,451	-47,1
222,669	-28,67
222,887	-34,82
223,105	53,25
223,323	-26,62
223,541	-47,1
223,759	43,01
223,977	-75,77
224,195	6,14
224,413	-34,82
224,631	-4,1
224,849	-10,24
225,067	57,34
225,285	-51,2
225,503	-32,77
225,721	18,43
225,939	67,58
226,157	-12,29
226,375	36,86
226,592	-2,05
226,81	-8,19
227,028	-28,67
227,246	-2,05
227,464	20,48
227,682	55,3
227,9	-14,34
228,117	2,05
228,335	55,3
228,553	34,82
228,771	-14,34
228,989	-92,16
229,206	34,82
229,424	-6,14
229,642	4,1
229,86	51,2
230,077	-12,29
230,295	-53,25
230,513	12,29
230,731	2,05
230,948	20,48
231,166	-38,91
231,384	-86,01
231,601	24,58
231,819	49,15
232,037	-43,01
232,254	53,25
232,472	34,82
232,689	-43,01
232,907	22,53
233,125	-12,29
233,342	-30,72
233,56	14,34
233,777	10,24
233,995	-26,62
234,213	65,54
234,43	-22,53
234,648	-43,01
234,865	-51,2
235,083	-47,1
235,3	36,86
235,518	0
235,735	18,43
235,953	-22,53
236,17	-43,01
236,388	30,72
236,605	59,39
236,822	-16,38
237,04	-30,72
237,257	-16,38
237,475	-2,05
237,692	-26,62
237,909	6,14
238,127	-67,58
238,344	-12,29
238,562	-2,05
238,779	4,1
238,996	-20,48
239,214	2,05
239,431	-34,82
239,648	-43,01
239,865	8,19
240,083	-83,97
240,3	6,14
240,517	-6,14
240,735	16,38
240,952	47,1
241,169	6,14
241,386	-6,14
241,603	-36,86
241,821	36,86
242,038	-75,77
242,255	4,1
242,472	-28,67
242,689	12,29
242,907	18,43
243,124	4,1
243,341	6,14
243,558	-34,82
243,775	-2,05
243,992	26,62
244,209	-22,53
244,426	-20,48
244,643	-77,82
244,86	18,43
245,078	-26,62
245,295	-49,15
245,512	10,24
245,729	55,3
245,946	-30,72
246,163	-55,3
246,38	-10,24
246,597	-40,96
246,814	10,24
247,031	43,01
247,248	-30,72
247,464	-2,05
247,681	-10,24
247,898	18,43
248,115	18,43
248,332	-14,34
248,549	-4,1
248,766	-2,05
248,983	71,68
249,2	4,1
249,417	-2,05
249,633	34,82
249,85	-34,82
250,067	-12,29
250,284	-59,39
250,501	-59,39
250,717	-4,1
250,934	-26,62
251,151	-6,14
251,368	-10,24
251,585	-43,01
251,801	0
252,018	45,06
252,235	63,49
252,451	28,67
252,668	-12,29
252,885	28,67
253,102	0
253,318	-18,43
253,535	-34,82
253,752	40,96
253,968	-38,91
254,185	12,29
254,401	26,62
254,618	-12,29
254,835	12,29
255,051	34,82
255,268	12,29
255,484	-77,82
255,701	20,48
255,917	-65,54
256,134	51,2
256,351	-20,48
256,567	22,53
256,784	-10,24
257	-10,24
257,217	0
257,433	10,24
257,65	2,05
257,866	-2,05
258,082	-22,53
258,299	-20,48
258,515	-36,86
258,732	32,77
258,948	-30,72
259,165	43,01
259,381	-28,67
259,597	-67,58
259,814	47,1
260,03	4,1
260,246	-26,62
260,463	-10,24
260,679	30,72
260,895	-26,62
261,112	4,1
261,328	6,14
261,544	63,49
261,761	-38,91
261,977	-6,14
262,193	-14,34
262,409	-73,73
262,626	34,82
262,842	47,1
263,058	12,29
263,274	51,2
263,49	18,43
263,707	14,34
263,923	30,72
264,139	18,43
264,355	20,48
264,571	71,68
264,787	18,43
265,004	55,3
265,22	-34,82
265,436	26,62
265,652	14,34
265,868	-4,1
266,084	-116,73
266,3	8,19
266,516	-34,82
266,732	-30,72
266,948	-100,35
267,164	6,14
267,38	-67,58
267,596	0
267,812	-30,72
268,028	69,63
268,244	-40,96
268,46	6,14
268,676	6,14
268,892	59,39
269,108	30,72
269,324	30,72
269,54	18,43
269,756	-26,62
269,972	-20,48
270,188	-30,72
270,403	-8,19
270,619	-12,29
270,835	-4,1
271,051	6,14
271,267	-36,86
271,483	45,06
271,698	38,91
271,914	-12,29
272,13	-45,06
272,346	-92,16
272,562	-34,82
272,777	-22,53
272,993	-2,05
273,209	-20,48
273,425	-4,1
273,64	49,15
273,856	-18,43
274,072	-59,39
274,287	-36,86
274,503	-34,82
274,719	2,05
274,934	-10,24
275,15	4,1
275,366	22,53
275,581	-4,1
275,797	108,54
276,012	22,53
276,228	4,1
276,444	49,15
276,659	28,67
276,875	-61,44
277,09	28,67
277,306	-59,39
277,521	4,1
277,737	-36,86
277,952	-18,43
278,168	-2,05
278,383	-14,34
278,599	14,34
278,814	-2,05
279,03	-75,77
279,245	22,53
279,461	-2,05
279,676	-22,53
279,892	18,43
280,107	-2,05
280,322	-43,01
280,538	126,97
280,753	24,58
280,969	-4,1
281,184	26,62
281,399	-28,67
281,615	-18,43
281,83	-10,24
282,045	-10,24
282,26	36,86
282,476	-71,68
282,691	20,48
282,906	22,53
283,122	-26,62
283,337	-30,72
283,552	12,29
283,767	16,38
283,983	-51,2
284,198	-24,58
284,413	-83,97
284,628	-20,48
284,843	14,34
285,058	-34,82
285,274	18,43
285,489	-51,2
285,704	-43,01
285,919	-83,97
286,134	22,53
286,349	-22,53
286,564	-28,67
286,779	12,29
286,995	-34,82
287,21	-75,77
287,425	-26,62
287,64	67,58
287,855	-8,19
288,07	-2,05
288,285	57,34
288,5	-49,15
288,715	4,1
288,93	-28,67
289,145	-49,15
289,36	-20,48
289,575	-20,48
289,79	-38,91
290,004	-26,62
290,219	-83,97
290,434	-26,62
290,649	-22,53
290,864	47,1
291,079	-40,96
291,294	-10,24
291,509	14,34
291,724	36,86
291,938	36,86
292,153	-2,05
292,368	-26,62
292,583	22,53
292,798	-10,24
293,012	2,05
293,227	43,01
293,442	-55,3
293,657	-6,14
293,871	-4,1
294,086	-10,24
294,301	-30,72
294,516	-10,24
294,73	32,77
294,945	-6,14
295,16	20,48
295,374	-2,05
295,589	-40,96
295,804	-38,91
296,018	-43,01
296,233	-2,05
296,447	47,1
296,662	26,62
296,877	-22,53
297,091	6,14
297,306	-18,43
297,52	-16,38
297,735	38,91
297,949	24,58
298,164	-69,63
298,378	34,82
298,593	-10,24
298,807	-22,53
299,022	26,62
299,236	14,34
299,451	38,91
299,665	-18,43
299,88	26,62
300,094	-67,58
300,309	16,38
300,523	-38,91
300,737	-14,34
300,952	-18,43
301,166	-34,82
301,381	-32,77
301,595	-45,06
301,809	18,43
302,024	2,05
302,238	-14,34
302,452	-14,34
302,667	-51,2
302,881	6,14
303,095	-34,82
303,309	-10,24
303,524	-36,86
303,738	14,34
303,952	-59,39
304,166	-20,48
304,381	-10,24
304,595	55,3
304,809	-26,62
305,023	-47,1
305,237	-38,91
305,452	-2,05
305,666	-36,86
305,88	-12,29
306,094	-28,67
306,308	-18,43
306,522	-67,58
306,736	47,1
306,95	-6,14
307,164	-2,05
307,379	14,34
307,593	-92,16
307,807	-20,48
308,021	-45,06
308,235	10,24
308,449	-77,82
308,663	22,53
308,877	22,53
309,091	-12,29
309,305	34,82
309,519	8,19
309,733	4,1
309,947	16,38
310,161	-22,53
310,374	-71,68
310,588	47,1
310,802	-18,43
311,016	2,05
311,23	-10,24
311,444	-47,1
311,658	-6,14
311,872	4,1
312,085	55,3
312,299	129,02
312,513	12,29
312,727	22,53
312,941	-28,67
313,154	75,77
313,368	-28,67
313,582	79,87
313,796	-12,29
314,009	-12,29
314,223	-22,53
314,437	36,86
314,651	51,2
314,864	4,1
315,078	40,96
315,292	59,39
315,505	-26,62
315,719	67,58
315,933	45,06
316,146	14,34
316,36	47,1
316,573	10,24
316,787	4,1
317,001	14,34
317,214	47,1
317,428	30,72
317,641	-2,05
317,855	18,43
318,068	-28,67
318,282	-38,91
318,495	110,59
318,709	92,16
318,922	59,39
319,136	14,34
319,349	4,1
319,563	43,01
319,776	61,44
319,99	59,39
320,203	38,91
320,417	104,45
320,63	126,97
320,843	-16,38
321,057	102,4
321,27	86,01
321,483	30,72
321,697	10,24
321,91	61,44
322,124	59,39
322,337	61,44
322,55	6,14
322,763	94,21
322,977	104,45
323,19	143,36
323,403	79,87
323,617	133,12
323,83	169,98
324,043	104,45
324,256	145,41
324,469	145,41
324,683	231,42
324,896	223,23
325,109	342,01
325,322	362,49
325,535	411,64
325,748	382,97
325,962	436,22
326,175	399,35
326,388	436,22
326,601	423,93
326,814	489,46
327,027	501,75
327,24	423,93
327,453	514,04
327,666	421,88
327,879	501,75
328,092	589,82
328,305	575,48
328,518	626,68
328,731	733,17
328,944	794,61
329,157	798,71
329,37	708,6
329,583	724,98
329,796	782,32
330,009	767,99
330,222	645,11
330,435	714,74
330,648	665,59
330,861	686,07
331,073	821,24
331,286	735,22
331,499	663,54
331,712	718,84
331,925	743,41
332,138	757,75
332,35	657,4
332,563	718,84
332,776	724,98
332,989	659,45
333,202	761,84
333,414	784,37
333,627	776,18
333,84	880,63
334,053	774,13
334,265	866,29
334,478	815,09
334,691	905,2
334,903	890,87
335,116	798,71
335,329	800,76
335,541	862,19
335,754	661,49
335,966	714,74
336,179	749,56
336,392	729,08
336,604	741,36
336,817	849,91
337,029	972,79
337,242	839,67
337,454	978,93
337,667	1015,79
337,88	1026,03
338,092	1230,83
338,305	1183,73
338,517	1279,98
338,729	1226,73
338,942	1329,13
339,154	1306,6
339,367	1443,82
339,579	1296,36
339,792	1439,72
340,004	1531,88
340,217	1572,84
340,429	1505,26
340,641	1435,63
340,854	1470,44
341,066	1349,61
341,278	1378,28
341,491	1538,02
341,703	1505,26
341,915	1685,48
342,128	1480,68
342,34	1679,33
342,552	1566,7
342,764	1431,53
342,977	1447,91
343,189	1288,17
343,401	1261,55
343,613	1241,07
343,826	1284,08
344,038	1423,34
344,25	1267,69
344,462	1415,15
344,674	1474,54
344,886	1669,09
345,099	1513,45
345,311	1650,66
345,523	1587,18
345,735	1759,21
345,947	1812,45
346,159	1710,05
346,371	1603,56
346,583	1857,51
346,795	1863,65
347,007	1824,74
347,219	1763,3
347,431	1710,05
347,643	1687,53
347,855	1677,29
348,067	1804,26
348,279	1939,43
348,491	1925,09
348,703	2133,98
348,915	2041,82
349,127	2127,84
349,339	2418,65
349,551	2381,79
349,763	2342,88
349,975	2547,67
350,187	2303,96
350,399	2705,37
350,61	2273,25
350,822	2471,9
351,034	2127,84
351,246	2326,49
351,458	2209,76
351,669	2445,27
351,881	2193,37
352,093	2451,42
352,305	2439,13
352,517	2553,82
352,728	2666,46
352,94	3106,77
353,152	2936,79
353,363	3114,96
353,575	3127,25
353,787	3305,42
353,999	3108,82
354,21	3352,52
354,422	3020,75
354,633	3205,07
354,845	2799,57
355,057	2994,13
355,268	2648,02
355,48	2807,77
355,692	2357,21
355,903	2414,56
356,115	2283,49
356,326	2244,57
356,538	2107,36
356,749	2070,5
356,961	1791,97
357,172	1990,63
357,384	1882,08
357,595	2004,96
357,807	2045,92
358,018	2258,91
358,23	2273,25
358,441	2594,78
358,653	2723,8
358,864	3100,62
359,075	2969,55
359,287	3280,85
359,498	3215,31
359,709	3368,91
359,921	3151,82
360,132	3100,62
360,344	3078,1
360,555	3217,36
360,766	3026,9
360,977	3186,64
361,189	3217,36
361,4	3385,29
361,611	3397,58
361,823	3655,62
362,034	3585,99
362,245	3749,83
362,456	3733,45
362,667	4014,02
362,879	4032,45
363,09	4061,12
363,301	4079,55
363,512	4173,76
363,723	4245,44
363,935	4435,9
364,146	4378,56
364,357	4843,45
364,568	4892,6
364,779	5160,88
364,99	5330,86
365,201	5304,24
365,412	5351,34
365,623	5666,73
365,834	5664,68
366,045	5670,83
366,256	5461,93
366,467	5453,74
366,678	5566,38
366,889	5586,86
367,1	5207,98
367,311	5515,18
367,522	5441,45
367,733	5515,18
367,944	5392,3
368,155	5599,15
368,366	5699,5
368,577	5754,79
368,788	5781,42
368,999	6141,86
369,209	5910,44
369,42	5906,34
369,631	5961,64
369,842	5738,41
370,053	5840,81
370,264	5695,4
370,474	5664,68
370,685	5867,43
370,896	5509,04
371,107	5543,85
371,317	5380,01
371,528	5173,17
371,739	5076,91
371,95	5294
372,16	4890,55
372,371	4683,7
372,582	4691,9
372,792	4517,82
373,003	4353,98
373,214	4634,55
373,424	4407,23
373,635	4433,85
373,846	4566,97
374,056	4880,31
374,267	4609,98
374,477	5052,34
374,688	5134,26
374,898	5347,25
375,109	5584,81
375,319	5879,72
375,53	5863,33
375,74	6092,71
375,951	6227,87
376,161	6408,09
376,372	6993,81
376,582	6858,65
376,793	7214,99
377,003	7454,61
377,214	7470,99
377,424	7722,89
377,635	7710,6
377,845	7423,89
378,055	7100,31
378,266	7245,71
378,476	6875,03
378,686	6694,81
378,897	6610,84
379,107	6645,66
379,317	6573,98
379,528	6825,88
379,738	6778,78
379,948	6832,02
380,158	6498,2
380,369	6680,47
380,579	6391,71
380,789	6025,12
380,999	5789,61
381,21	5197,74
381,42	4900,79
381,63	4972,47
381,84	4370,37
382,05	4085,7
382,261	3809,22
382,471	3717,06
382,681	3708,87
382,891	4208,58
383,101	4124,61
383,311	4560,83
383,521	4818,87
383,731	5068,72
383,941	5388,21
384,151	5732,26
384,361	5996,45
384,571	6041,51
384,781	5986,21
384,991	6145,95
385,201	5902,25
385,411	6250,4
385,621	5910,44
385,831	6236,06
386,041	6102,95
386,251	6145,95
386,461	5998,5
386,671	6244,26
386,881	6254,5
387,091	6078,37
387,301	6057,89
387,511	6391,71
387,72	6277,02
387,93	6336,42
388,14	6612,89
388,35	7059,35
388,56	7223,19
388,769	7296,91
388,979	7839,62
389,189	8075,14
389,399	8290,18
389,609	8456,06
389,818	8613,76
390,028	8697,72
390,238	8828,79
390,447	8902,52
390,657	8533,89
390,867	8673,15
391,076	7843,72
391,286	7575,44
391,496	6805,4
391,705	6666,14
391,915	5648,3
392,125	5347,25
392,334	4730,81
392,544	4519,87
392,753	4091,84
392,963	4689,85
393,172	4687,8
393,382	5306,29
393,591	5676,97
393,801	6698,91
394,01	6567,84
394,22	7475,09
394,429	8075,14
394,639	7866,25
394,848	7432,08
395,058	7542,67
395,267	7167,89
395,477	6465,44
395,686	6506,4
395,895	6264,74
396,105	5801,9
396,314	5795,75
396,524	5992,36
396,733	6625,18
396,942	7296,91
397,152	8572,8
397,361	8937,34
397,57	9488,24
397,78	10229,6
397,989	10794,84
398,198	11806,54
398,407	11851,6
398,617	11874,12
398,826	12580,67
399,035	12011,34
399,244	12261,19
399,453	12220,23
399,663	13063,99
399,872	12889,92
400,081	13403,96
400,29	12846,91
400,499	13479,73
400,708	12994,36
400,917	13958,95
401,127	13356,85
401,336	13629,23
401,545	13266,74
401,754	13668,14
401,963	13834,03
402,172	13592,37
402,381	13107
402,59	13645,62
402,799	13195,06
403,008	13281,08
403,217	13088,57
403,426	13596,46
403,635	13174,58
403,844	13508,4
404,053	13500,21
404,262	13352,76
404,471	13176,63
404,68	13365,04
404,888	12742,46
405,097	12973,88
405,306	13041,47
405,515	13127,48
405,724	12826,43
405,933	13248,31
406,142	12943,16
406,35	12826,43
406,559	13653,81
406,768	13774,64
406,977	13365,04
407,185	14329,64
407,394	13690,67
407,603	14122,79
407,812	14182,18
408,02	14690,08
408,229	14348,07
408,438	14233,38
408,646	14294,82
408,855	13864,75
409,064	13686,58
409,272	13666,1
409,481	13838,12
409,69	13963,05
409,898	13643,57
410,107	14233,38
410,315	13860,65
410,524	14929,69
410,733	14534,43
410,941	15114,01
411,15	14989,08
411,358	15533,84
411,567	15365,91
411,775	15521,56
411,984	14911,26
412,192	15437,59
412,401	14860,06
412,609	15423,25
412,818	15386,39
413,026	15363,86
413,234	15218,46
413,443	15568,66
413,651	15157,02
413,86	15542,03
414,068	15093,53
414,276	15308,57
414,485	15144,73
414,693	14876,44
414,901	15200,02
415,11	15949,58
415,318	15091,48
415,526	15914,77
415,734	15273,75
415,943	15902,48
416,151	15183,64
416,359	15075,1
416,567	14765,85
416,776	14847,77
416,984	14786,33
417,192	15093,53
417,4	14552,87
417,608	14524,19
417,817	14524,19
418,025	14649,12
418,233	14784,29
418,441	14604,07
418,649	14741,28
418,857	15236,89
419,065	14636,83
419,273	14432,04
419,481	14518,05
419,689	15490,84
419,897	15701,78
420,105	15628,05
420,313	15396,63
420,521	15333,14
420,729	14888,73
420,937	15527,7
421,145	15044,38
421,353	15222,55
421,561	15001,37
421,769	14962,46
421,977	14984,99
422,185	14307,11
422,393	14774,05
422,601	15308,57
422,809	14612,26
423,017	14628,64
423,224	14567,2
423,432	15114,01
423,64	14622,5
423,848	15361,81
424,056	14728,99
424,263	15505,17
424,471	14808,86
424,679	14841,63
424,887	14991,13
425,094	15318,81
425,302	14755,61
425,51	14987,04
425,718	14511,91
425,925	14808,86
426,133	14634,78
426,341	15109,91
426,548	15126,3
426,756	14907,16
426,964	14593,83
427,171	15126,3
427,379	14982,94
427,586	14939,93
427,794	14671,65
428,001	15087,39
428,209	14886,68
428,417	14106,41
428,624	14223,14
428,832	13340,47
429,039	12629,82
429,247	11958,09
429,454	12029,77
429,662	12724,03
429,869	11552,59
430,076	12166,98
430,284	11763,53
430,491	12795,71
430,699	13952,81
430,906	14102,31
431,114	14610,21
431,321	15277,85
431,528	15628,05
431,736	16492,29
431,943	17125,11
432,15	16127,75
432,358	15740,69
432,565	16529,16
432,772	15746,83
432,979	16482,05
433,187	16203,53
433,394	15836,94
433,601	16516,87
433,808	16455,43
434,016	16017,16
434,223	16875,26
434,43	18044,65
434,637	17452,79
434,844	18482,92
435,052	18679,52
435,259	18280,17
435,466	18378,47
435,673	18384,62
435,88	19146,46
436,087	19375,83
436,294	19031,77
436,501	17848,05
436,708	17825,52
436,915	17909,49
437,122	17966,83
437,329	17272,57
437,537	17503,99
437,743	17297,14
437,95	16854,78
438,157	17256,18
438,364	17811,18
438,571	17944,3
438,778	17719,03
438,985	18824,93
439,192	18454,25
439,399	18560,74
439,606	18134,76
439,813	19058,4
440,02	19838,67
440,227	19240,67
440,433	19103,45
440,64	19377,88
440,847	19427,03
441,054	19517,14
441,261	20786,88
441,467	20135,63
441,674	20367,05
441,881	20649,67
442,088	20899,52
442,294	20070,09
442,501	20276,94
442,708	20293,32
442,914	20868,8
443,121	21448,38
443,328	20473,54
443,534	21395,13
443,741	20606,66
443,948	19814,1
444,154	21087,93
444,361	20287,18
444,568	20016,85
444,774	19093,21
444,981	19255
445,187	19207,9
445,394	19893,97
445,6	19361,5
445,807	21262,01
446,013	20084,43
446,22	20332,23
446,426	21008,06
446,633	21165,76
446,839	21491,38
447,046	20772,55
447,252	21898,93
447,459	21659,32
447,665	20838,08
447,871	21513,91
448,078	21913,27
448,284	20766,4
448,491	21358,27
448,697	22019,76
448,903	22011,57
449,11	22423,21
449,316	22075,06
449,522	22298,28
449,728	22787,75
449,935	22910,63
450,141	22656,68
450,347	23289,5
450,553	22292,14
450,76	22183,6
450,966	22531,75
451,172	22386,35
451,378	22353,58
451,584	21935,79
451,791	21575,35
451,997	21106,37
452,203	21632,69
452,409	21452,47
452,615	21563,06
452,821	20694,72
453,027	20639,43
453,233	22181,55
453,44	21391,03
453,646	21761,72
453,852	21759,67
454,058	22550,18
454,264	21579,45
454,47	22554,28
454,676	21974,7
454,882	23271,07
455,088	21497,53
455,294	22511,27
455,5	22892,19
455,705	23770,77
455,911	22951,59
456,117	22914,72
456,323	23248,54
456,529	22372,01
456,735	23477,91
456,941	22994,59
457,147	23557,78
457,352	23172,77
457,558	23010,98
457,764	23338,65
457,97	23125,66
458,176	23398,04
458,381	23414,43
458,587	22550,18
458,793	23705,24
458,999	22779,56
459,204	24784,52
459,41	25235,07
459,616	23955,09
459,821	24288,91
460,027	25321,09
460,233	25491,07
460,438	24477,32
460,644	25357,95
460,85	24876,68
461,055	25200,26
461,261	25751,16
461,466	24454,79
461,672	24090,26
461,878	26447,47
462,083	24815,24
462,289	25421,44
462,494	25544,31
462,7	24600,2
462,905	23797,4
463,111	25540,22
463,316	25497,21
463,522	25577,08
463,727	26009,2
463,932	26173,04
464,138	26226,29
464,343	26515,05
464,549	26373,74
464,754	28071,51
464,959	27915,86
465,165	27954,77
465,37	27129,44
465,575	26877,54
465,781	28165,71
465,986	28046,93
466,191	27702,87
466,397	27743,83
466,602	26513
466,807	27616,86
467,012	27971,16
467,218	28290,64
467,423	28859,98
467,628	29955,64
467,833	31034,92
468,038	30021,17
468,244	29449,79
468,449	30971,43
468,654	30322,23
468,859	30459,44
469,064	29902,39
469,269	29118,02
469,474	30205,49
469,679	30707,24
469,885	29799,99
470,09	31051,3
470,295	31397,41
470,5	30869,03
470,705	31596,06
470,91	31960,6
471,115	32187,92
471,32	33666,56
471,525	33715,71
471,73	33582,59
471,935	33195,53
472,139	33523,2
472,344	33728
472,549	33846,78
472,754	33965,56
472,959	34430,45
473,164	33658,37
473,369	33881,59
473,574	35941,85
473,778	35857,88
473,983	36408,79
474,188	37594,56
474,393	36048,35
474,598	36896,2
474,802	36074,97
475,007	36617,68
475,212	36830,67
475,417	36077,02
475,621	36556,24
475,826	37662,15
476,031	37387,72
476,235	37928,38
476,44	39069,1
476,645	38745,52
476,849	39746,98
477,054	39923,1
477,259	40693,14
477,463	40648,08
477,668	40344,98
477,872	41635,2
478,077	40934,8
478,282	41100,68
478,486	41401,74
478,691	41770,37
478,895	42040,7
479,1	42265,98
479,304	42515,83
479,509	42161,53
479,713	43124,08
479,918	42628,47
480,122	42720,63
480,326	43922,79
480,531	43892,07
480,735	44060
480,94	44633,43
481,144	46300,48
481,348	44342,62
481,553	45407,56
481,757	44434,78
481,961	45436,23
482,166	45741,38
482,37	46120,26
482,574	45141,33
482,778	45780,29
482,983	46435,64
483,187	45788,49
483,391	45655,37
483,595	45950,27
483,8	45507,91
484,004	46042,43
484,208	45538,63
484,412	44612,95
484,616	43873,63
484,821	43445,61
485,025	41606,53
485,229	41895,3
485,433	40365,46
485,637	41127,31
485,841	40310,17
486,045	40967,57
486,249	41287,05
486,453	42511,74
486,657	43582,82
486,861	44821,84
487,065	43687,27
487,269	45143,38
487,473	45206,86
487,677	46034,24
487,881	46636,34
488,085	46738,74
488,289	46644,54
488,493	47349,04
488,697	48082,21
488,901	49030,42
489,105	48889,11
489,309	49745,16
489,512	49872,13
489,716	50089,22
489,92	49491,21
490,124	49480,97
490,328	50355,46
490,531	48846,1
490,735	49294,61
490,939	48665,88
491,143	48174,37
491,346	48198,94
491,55	48704,79
491,754	48463,13
491,958	48694,55
492,161	49153,3
492,365	49417,49
492,569	49184,02
492,772	49368,33
492,976	50095,36
493,18	50191,62
493,383	50863,35
493,587	51199,22
493,79	52012,26
493,994	51502,32
494,197	51903,72
494,401	51684,59
494,605	51498,22
494,808	52151,52
495,012	52176,1
495,215	51483,89
495,419	51754,22
495,622	50928,89
495,825	51813,61
496,029	51471,6
496,232	52358,37
496,436	51563,76
496,639	52010,21
496,843	51897,58
497,046	52247,78
497,249	51506,41
497,453	50683,13
497,656	50865,4
497,859	50429,18
498,063	50949,37
498,266	51369,2
498,469	50883,83
498,673	51285,23
498,876	50922,74
499,079	51520,75
499,282	50420,99
499,485	50920,69
499,689	49980,68
499,892	50134,27
500,095	49155,35
500,298	50171,14
500,501	48594,2
500,705	49161,49
500,908	49306,9
501,111	49554,7
501,314	49120,53
501,517	49218,83
501,72	50117,89
501,923	49806,6
502,126	50300,16
502,329	50908,41
502,532	50076,93
502,735	50035,97
502,938	50011,4
503,141	50052,36
503,344	50699,51
503,547	50316,54
503,75	50552,06
503,953	50715,9
504,156	50953,46
504,359	51260,66
504,562	50674,94
504,765	52210,92
504,968	52608,22
505,17	52333,79
505,373	51987,69
505,576	52575,45
505,779	52454,62
505,982	52262,11
506,185	51913,96
506,387	52403,42
506,59	51576,04
506,793	51786,99
506,996	50717,95
507,198	51715,31
507,401	50324,74
507,604	51412,21
507,807	52262,11
508,009	52026,6
508,212	51592,43
508,415	52636,89
508,617	53120,21
508,82	52673,76
509,022	51461,36
509,225	52215,01
509,428	52434,14
509,63	52215,01
509,833	52233,44
510,035	52985,05
510,238	52206,82
510,44	52528,35
510,643	52946,14
510,845	53361,87
511,048	53394,64
511,25	52954,33
511,453	52735,2
511,655	53591,25
511,858	52315,36
512,06	52550,88
512,262	52575,45
512,465	51447,02
512,667	51584,24
512,87	51522,8
513,072	51045,62
513,274	51838,18
513,477	51610,86
513,679	51408,11
513,881	51670,25
514,084	51813,61
514,286	51719,4
514,488	52045,03
514,69	53241,04
514,893	52985,05
515,095	52149,48
515,297	52382,94
515,499	50916,6
515,701	49855,75
515,904	48983,32
516,106	48364,83
516,308	47514,92
516,51	47584,55
516,712	47430,96
516,914	48203,04
517,116	48344,35
517,318	48528,67
517,52	48514,33
517,722	48526,62
517,925	49044,76
518,127	49591,56
518,329	49691,91
518,531	49909
518,733	51365,1
518,935	51848,42
519,136	51940,58
519,338	53173,46
519,54	53138,65
519,742	53841,1
519,944	53568,72
520,146	53976,26
520,348	54205,64
520,55	54648
520,752	54758,59
520,954	55389,36
521,155	55000,25
521,357	55667,89
521,559	54928,57
521,761	55737,52
521,963	54252,74
522,164	54254,79
522,366	54211,78
522,568	55035,06
522,77	54787,26
522,971	56401,06
523,173	55747,76
523,375	56515,75
523,576	56331,43
523,778	56915,1
523,98	57222,29
524,181	57107,61
524,383	56728,73
524,584	57664,66
524,786	56945,82
524,988	56425,63
525,189	56253,61
525,391	54975,67
525,592	54529,22
525,794	53648,59
525,995	52440,29
526,197	52038,89
526,398	51938,54
526,6	52751,58
526,801	52810,97
527,003	53028,05
527,204	53361,87
527,406	54672,57
527,607	54729,92
527,808	55839,92
528,01	55440,56
528,211	56327,33
528,412	56456,35
528,614	56859,8
528,815	56208,55
529,016	56462,5
529,218	56159,4
529,419	55508,14
529,62	56163,49
529,822	55925,93
530,023	56327,33
530,224	56173,73
530,425	56810,65
530,626	56265,89
530,828	55696,56
531,029	56548,51
531,23	54992,06
531,431	54623,42
531,632	54490,3
531,833	53388,5
532,035	53116,12
532,236	52618,46
532,437	52831,45
532,638	52421,86
532,839	53148,88
533,04	53173,46
533,241	52755,67
533,442	53611,73
533,643	53435,6
533,844	53578,96
534,045	52866,27
534,246	53007,58
534,447	53730,51
534,648	53783,76
534,849	53959,88
535,05	53812,43
535,251	53853,39
535,451	53451,98
535,652	53462,22
535,853	53370,07
536,054	51963,11
536,255	52028,65
536,456	51580,14
536,657	52419,81
536,857	51535,09
537,058	51440,88
537,259	52405,47
537,46	52696,28
537,66	51971,3
537,861	52161,76
538,062	50724,09
538,263	51500,27
538,463	51217,65
538,664	51086,58
538,865	50359,55
539,065	50709,75
539,266	49741,06
539,466	49757,45
539,667	49003,8
539,868	49374,48
540,068	48438,56
540,269	48801,05
540,469	48842,01
540,67	49161,49
540,87	49077,52
541,071	49446,16
541,271	49364,24
541,472	49145,11
541,672	49507,6
541,873	49622,28
542,073	48659,74
542,274	49362,19
542,474	48833,81
542,675	49138,96
542,875	49638,67
543,075	49759,5
543,276	49712,39
543,476	50177,28
543,676	49585,42
543,877	49827,08
544,077	49161,49
544,277	49274,13
544,478	49556,75
544,678	49702,15
544,878	49550,6
545,078	49290,51
545,279	49239,31
545,479	49505,55
545,679	49620,23
545,879	49143,06
546,079	48579,87
546,28	49179,92
546,48	48502,04
546,68	48995,6
546,88	48182,56
547,08	48229,66
547,28	47721,77
547,48	47850,79
547,68	48254,24
547,88	48074,02
548,081	49032,47
548,281	48872,73
548,481	48925,97
548,681	49085,71
548,881	48774,42
549,081	48629,02
549,28	47865,13
549,48	48223,52
549,68	47861,03
549,88	49128,72
550,08	48184,61
550,28	48383,26
550,48	47856,93
550,68	48749,85
550,88	48438,56
551,08	48057,63
551,279	48274,72
551,479	48004,39
551,679	48045,35
551,879	47947,04
552,079	47856,93
552,278	47512,87
552,478	47531,31
552,678	48059,68
552,878	47985,96
553,077	47873,32
553,277	47590,7
553,477	48094,5
553,676	48164,13
553,876	48383,26
554,076	47797,54
554,275	47906,08
554,475	47623,47
554,674	48495,9
554,874	48479,52
555,074	47822,12
555,273	47496,49
555,473	48176,42
555,672	47357,23
555,872	46943,54
556,071	46566,71
556,271	46984,5
556,47	46628,15
556,67	46019,91
556,869	46161,22
557,068	46867,76
557,268	45983,04
557,467	46175,55
557,667	46120,26
557,866	45354,32
558,065	45157,71
558,265	44623,19
558,464	44361,05
558,663	44606,81
558,863	44256,6
559,062	45022,54
559,261	44490,07
559,461	45342,03
559,66	45208,91
559,859	45483,34
560,058	45610,31
560,258	46157,12
560,457	45423,95
560,656	46071,1
560,855	45137,23
561,054	46021,95
561,253	45292,88
561,453	45950,27
561,652	45473,1
561,851	45854,02
562,05	45614,41
562,249	45653,32
562,448	45958,47
562,647	46120,26
562,846	45526,35
563,045	45866,31
563,244	45153,61
563,443	45880,64
563,642	44580,18
563,841	45507,91
564,04	45100,37
564,239	45989,19
564,438	45686,09
564,637	45485,39
564,836	44981,59
565,035	43840,87
565,234	44113,25
565,432	44309,85
565,631	44295,52
565,83	44211,55
566,029	43994,46
566,228	44735,83
566,427	45018,45
566,625	44549,46
566,824	44264,8
567,023	45288,78
567,222	44215,65
567,42	45094,22
567,619	44014,94
567,818	44168,54
568,016	43783,52
568,215	44524,89
568,414	43867,49
568,612	44754,26
568,811	44006,75
569,01	44309,85
569,208	43838,82
569,407	44107,1
569,605	43380,07
569,804	43621,73
570,002	42712,44
570,201	43140,46
570,4	42567,03
570,598	42460,54
570,797	42663,28
570,995	42782,07
571,193	42483,06
571,392	43173,23
571,59	43314,54
571,789	43683,17
571,987	43429,23
572,186	43912,55
572,384	43406,7
572,582	43928,93
572,781	44180,83
572,979	43769,19
573,177	43867,49
573,376	44402,01
573,574	43218,28
573,772	43797,86
573,971	43801,96
574,169	43158,89
574,367	42784,12
574,565	43185,52
574,763	42417,53
574,962	42507,64
575,16	42206,59
575,358	42419,58
575,556	42255,74
575,754	43310,44
575,952	41876,86
576,151	42933,62
576,349	42040,7
576,547	42591,61
576,745	42902,9
576,943	42395
577,141	42169,72
577,339	42048,89
577,537	42044,8
577,735	41631,11
577,933	41098,64
578,131	40965,52
578,329	41295,24
578,527	41147,79
578,725	41649,54
578,923	42098,05
579,121	41903,49
579,319	41928,06
579,516	41962,88
579,714	42044,8
579,912	42079,61
580,11	42151,29
580,308	42401,14
580,506	42198,4
580,704	41766,27
580,901	42542,45
581,099	42790,26
581,297	42351,99
581,495	42964,34
581,692	42966,38
581,89	41999,74
582,088	42782,07
582,285	42382,71
582,483	43236,72
582,681	43400,55
582,878	42460,54
583,076	42462,58
583,274	43220,33
583,471	42382,71
583,669	42655,09
583,866	42638,71
584,064	43079,02
584,262	42265,98
584,459	42321,27
584,657	41893,25
584,854	42208,64
585,052	40770,96
585,249	40893,84
585,447	41368,97
585,644	40899,98
585,841	41086,35
586,039	41592,2
586,236	41553,29
586,434	41555,33
586,631	41762,18
586,828	41389,45
587,026	41235,85
587,223	41123,21
587,42	41254,28
587,618	41534,85
587,815	39740,83
588,012	39030,19
588,21	38448,57
588,407	38288,82
588,604	37316,04
588,801	36521,43
588,999	36871,63
589,196	37512,64
589,393	37977,53
589,59	38321,59
589,787	38593,97
589,984	39099,82
590,182	38997,42
590,379	39028,14
590,576	39007,66
590,773	39220,65
590,97	39441,83
591,167	39718,31
591,364	39095,72
591,561	39581,09
591,758	39671,2
591,955	39230,89
592,152	39361,96
592,349	39271,85
592,546	39390,63
592,743	39552,42
592,94	38864,3
593,137	39390,63
593,334	39544,23
593,531	38630,83
593,727	39013,8
593,924	39267,75
594,121	38487,48
594,318	39167,4
594,515	38143,42
594,712	38919,6
594,908	38561,2
595,105	38884,78
595,302	38407,61
595,499	38974,89
595,696	38843,82
595,892	38956,46
596,089	39222,7
596,286	39429,54
596,482	38923,69
596,679	38665,65
596,876	38639,03
597,072	38526,39
597,269	38409,65
597,466	38026,68
597,662	37799,36
597,859	38108,6
598,055	37889,47
598,252	37504,45
598,448	37823,93
598,645	37955
598,841	37090,76
599,038	37492,16
599,234	37273,03
599,431	37338,57
599,627	37266,89
599,824	37107,15
600,02	36924,88
600,217	37322,18
600,413	36928,97
600,609	37066,19
600,806	37019,08
601,002	37019,08
601,198	36576,72
601,395	35935,71
601,591	36062,68
601,787	36308,44
601,984	36482,52
602,18	36636,11
602,376	36654,54
602,572	37223,88
602,769	37469,64
602,965	37043,66
603,161	37135,82
603,357	37244,36
603,553	37027,27
603,75	36933,07
603,946	36994,51
604,142	37436,87
604,338	37080,52
604,534	36928,97
604,73	36396,5
604,926	36863,44
605,122	37127,63
605,318	37027,27
605,514	36505,04
605,71	36937,16
605,906	36474,32
606,102	36779,47
606,298	36904,4
606,494	36748,75
606,69	36816,33
606,886	36711,89
607,082	36644,3
607,278	37103,05
607,474	36304,34
607,67	36675,02
607,866	36142,55
608,062	37002,7
608,257	36576,72
608,453	36990,41
608,649	37266,89
608,845	36873,68
609,041	36558,29
609,236	36765,13
609,432	36672,98
609,628	36373,97
609,824	35896,8
610,019	36195,8
610,215	36070,87
610,411	37322,18
610,606	36408,79
610,802	37416,39
610,998	37064,14
611,193	36894,16
611,389	36943,31
611,584	36548,05
611,78	36292,05
611,976	36658,64
612,171	36705,74
612,367	36890,06
612,562	36404,69
612,758	36263,38
612,953	36517,33
613,149	36644,3
613,344	36224,47
613,539	36845,01
613,735	37287,37
613,93	37281,22
614,126	36945,36
614,321	37750,21
614,517	36980,17
614,712	37205,45
614,907	36713,94
615,103	37189,06
615,298	36869,58
615,493	37297,61
615,688	36079,07
615,884	36969,93
616,079	35941,85
616,274	36652,5
616,47	36578,77
616,665	36912,59
616,86	37041,61
617,055	37101
617,25	37412,29
617,445	37969,34
617,641	37055,95
617,836	38018,49
618,031	37653,95
618,226	37877,18
618,421	37522,88
618,616	37998,01
618,811	37162,44
619,006	37928,38
619,201	37477,83
619,396	37893,57
619,591	37854,65
619,786	38143,42
619,981	37760,45
620,176	38458,81
620,371	37488,07
620,566	38063,55
620,761	37227,98
620,956	37961,15
621,151	36826,57
621,346	37146,06
621,541	36814,29
621,735	37178,82
621,93	36283,86
622,125	37166,54
622,32	36027,87
622,515	36916,68
622,709	36365,78
622,904	36144,6
623,099	36093,4
623,294	36234,71
623,488	35200,49
623,683	35347,94
623,878	34887,15
624,072	35165,67
624,267	35528,16
624,462	35012,07
624,656	34840,04
624,851	35341,8
625,046	34694,64
625,24	34958,83
625,435	34604,53
625,629	34778,61
625,824	34561,52
626,018	34991,59
626,213	34082,3
626,407	34768,37
626,602	34162,17
626,796	34022,9
626,991	34006,52
627,185	33598,98
627,38	33005,06
627,574	32732,68
627,768	32456,21
627,963	32992,78
628,157	32787,98
628,352	33297,92
628,546	32560,66
628,74	33017,35
628,935	32667,15
629,129	32456,21
629,323	32073,24
629,517	32192,02
629,712	32771,6
629,906	32656,91
630,1	32421,39
630,294	32515,6
630,489	32531,98
630,683	32839,18
630,877	32144,92
631,071	32321,04
631,265	32415,25
631,459	32312,85
631,653	31882,78
631,848	32300,56
632,042	31852,06
632,236	32095,77
632,43	31913,5
632,624	32187,92
632,818	32333,33
633,012	32085,53
633,206	31508
633,4	32052,76
633,594	31876,63
633,788	31897,11
633,982	32189,97
634,176	32087,57
634,369	31903,26
634,563	32286,23
634,757	32054,81
634,951	32206,36
635,145	31819,29
635,339	31641,12
635,533	31438,37
635,726	31839,77
635,92	31221,28
636,114	31868,44
636,308	31335,97
636,501	31938,07
636,695	31931,93
636,889	31602,21
637,083	31567,39
637,276	31737,37
637,47	32187,92
637,664	31858,2
637,857	31544,86
638,051	31784,48
638,244	31794,71
638,438	31299,11
638,632	31084,07
638,825	30680,62
639,019	30905,9
639,212	30744,11
639,406	30662,19
639,599	30852,65
639,793	31254,05
639,986	30387,76
640,18	30711,34
640,373	30909,99
640,567	30152,24
640,76	30185,01
640,954	30055,99
641,147	29896,25
641,34	30391,86
641,534	30385,71
641,727	29900,34
641,92	30228,02
642,114	30180,92
642,307	30428,72
642,5	30250,55
642,694	29984,31
642,887	29752,89
643,08	30309,94
643,273	30117,43
643,467	29945,4
643,66	30023,22
643,853	30162,48
644,046	29589,05
644,239	29931,06
644,432	29802,04
644,626	29797,95
644,819	29720,12
645,012	29767,23
645,205	29701,69
645,398	29437,5
645,591	29036,1
645,784	29118,02
645,977	29212,23
646,17	29216,32
646,363	29056,58
646,556	28884,55
646,749	29072,96
646,942	29523,52
647,135	29185,6
647,328	29046,34
647,521	28524,11
647,714	28919,37
647,907	28902,98
648,099	29226,56
648,292	28827,21
648,485	28712,52
648,678	27885,14
648,871	28286,54
649,064	27233,89
649,256	28130,9
649,449	27602,52
649,642	27364,96
649,835	27334,24
650,027	28540,49
650,22	28169,81
650,413	28270,16
650,605	28059,22
650,798	28454,48
650,991	27858,52
651,183	28612,17
651,376	28051,03
651,568	28276,3
651,761	27901,53
651,954	28042,84
652,146	27905,62
652,339	27817,56
652,531	27844,18
652,724	27848,28
652,916	27641,43
653,109	28081,75
653,301	28313,17
653,494	28259,92
653,686	27737,69
653,879	27889,24
654,071	27133,54
654,263	27369,05
654,456	27524,7
654,648	27303,52
654,84	26197,62
655,033	25822,84
655,225	24909,44
655,417	24503,95
655,61	23770,77
655,802	22847,14
655,994	22283,95
656,186	23277,21
656,379	23203,49
656,571	23768,73
656,763	24067,73
656,955	24690,31
657,148	25147,01
657,34	25114,24
657,532	25396,86
657,724	25949,81
657,916	26367,6
658,108	26685,03
658,3	25806,45
658,492	26375,79
658,684	25960,05
658,876	26322,54
659,068	26099,31
659,26	26375,79
659,452	26717,8
659,644	26738,28
659,836	26193,52
660,028	26166,9
660,22	26125,94
660,412	26709,61
660,604	26336,88
660,796	26355,31
660,988	26635,88
661,18	26457,71
661,372	26805,86
661,563	26709,61
661,755	26529,39
661,947	26801,77
662,139	26431,08
662,331	26304,11
662,522	25720,44
662,714	26152,56
662,906	25871,99
663,097	25781,88
663,289	25837,17
663,481	25304,7
663,673	25605,75
663,864	25562,75
664,056	25507,45
664,247	25777,78
664,439	25181,82
664,631	25759,35
664,822	26203,76
665,014	26052,21
665,205	25978,48
665,397	25900,66
665,588	25722,49
665,78	25704,06
665,971	25710,2
666,163	25532,03
666,354	24954,5
666,546	25296,51
666,737	24936,07
666,929	25214,59
667,12	25038,47
667,311	24880,77
667,503	25013,89
667,694	25040,51
667,885	24737,41
668,077	25011,84
668,268	25114,24
668,459	25228,93
668,651	25202,3
668,842	25484,92
669,033	24946,31
669,224	24741,51
669,416	24825,48
669,607	24997,51
669,798	24696,46
669,989	25183,87
670,18	24673,93
670,371	24823,43
670,563	24444,56
670,754	24632,97
670,945	23846,55
671,136	24379,02
671,327	23903,89
671,518	23811,73
671,709	23885,46
671,9	24123,02
672,091	23875,22
672,282	24172,18
672,473	24184,46
672,664	24669,83
672,855	24168,08
673,046	24178,32
673,237	23950,99
673,428	23854,74
673,619	23928,47
673,809	24108,69
674	23395,99
674,191	23813,78
674,382	23758,49
674,573	23803,54
674,764	23510,68
674,954	23690,9
675,145	23803,54
675,336	24288,91
675,527	23873,17
675,717	24374,92
675,908	23580,31
676,099	23707,29
676,289	23230,11
676,48	23183,01
676,671	23039,65
676,861	23719,57
677,052	23086,75
677,243	23635,61
677,433	23512,73
677,624	23514,78
677,814	23031,46
678,005	23137,95
678,195	22781,6
678,386	22783,65
678,576	22556,33
678,767	23172,77
678,957	22404,78
679,148	23350,94
679,338	23008,93
679,529	23125,66
679,719	22630,05
679,909	23180,96
680,1	22331,05
680,29	22765,22
680,481	22716,07
680,671	23223,97
680,861	22793,89
681,052	22349,48
681,242	22337,2
681,432	23004,83
681,622	22283,95
681,813	22515,37
682,003	22472,36
682,193	22122,16
682,383	22490,79
682,573	22699,69
682,764	22431,4
682,954	22834,85
683,144	22482,6
683,334	22771,36
683,524	22126,25
683,714	22009,52
683,904	21595,83
684,094	21915,31
684,284	22052,53
684,474	22007,47
684,664	21808,82
684,854	21767,86
685,044	21630,65
685,234	21591,73
685,424	21608,12
685,614	21716,66
685,804	20903,62
685,994	20336,33
686,184	19248,86
686,374	17946,35
686,564	16613,12
686,753	16191,24
686,943	15478,55
687,133	15642,39
687,323	15509,27
687,513	16410,37
687,702	16371,46
687,892	16822,02
688,082	16768,77
688,272	17250,04
688,461	16654,08
688,651	17028,86
688,841	16807,68
689,03	17010,43
689,22	17000,19
689,41	17331,96
689,599	17272,57
689,789	17753,84
689,979	17485,56
690,168	18001,65
690,358	17757,94
690,547	18251,5
690,737	18487,01
690,926	18581,22
691,116	18091,76
691,305	18999,01
691,495	18863,84
691,684	19369,69
691,874	19140,32
692,063	19433,18
692,252	19580,63
692,442	20025,04
692,631	19482,33
692,82	19689,17
693,01	19529,43
693,199	20109,01
693,388	19474,13
693,578	19889,87
693,767	19699,41
693,956	19248,86
694,146	19494,61
694,335	19398,36
694,524	19482,33
694,713	19654,36
694,902	19732,18
695,092	20154,06
695,281	19687,12
695,47	19748,56
695,659	19742,42
695,848	19713,75
696,037	19734,23
696,226	19926,74
696,415	19994,32
696,604	20106,96
696,793	19549,91
696,982	19810
697,171	19740,37
697,36	19830,48
697,549	19541,72
697,738	19934,93
697,927	19627,73
698,116	19881,68
698,305	19377,88
698,494	19678,93
698,683	19435,22
698,872	19502,81
699,061	19691,22
699,25	19644,12
699,438	19451,61
699,627	19367,64
699,816	18798,31
700,005	18937,57
700,193	18667,24
700,382	18912,99
700,571	18953,95
700,76	19203,8
700,948	18953,95
701,137	18487,01
701,326	18409,19
701,514	18493,16
701,703	18599,65
701,892	18487,01
702,08	18581,22
702,269	18470,63
702,457	18673,38
702,646	18734,82
702,834	18317,03
703,023	18302,7
703,212	18179,82
703,4	18751,2
703,589	18056,94
703,777	18560,74
703,965	18388,71
704,154	18665,19
704,342	18003,69
704,531	18800,35
704,719	18198,25
704,907	18605,8
705,096	18284,26
705,284	18296,55
705,472	18255,59
705,661	18390,76
705,849	18007,79
706,037	18464,49
706,226	18155,24
706,414	18261,74
706,602	17673,97
706,79	18102
706,979	18226,92
707,167	18097,9
707,355	18214,63
707,543	18339,56
707,731	18075,37
707,919	18161,39
708,107	17762,03
708,296	18247,4
708,484	17837,81
708,672	17942,25
708,86	17762,03
709,048	18382,57
709,236	17426,17
709,424	17698,55
709,612	17592,05
709,8	18147,05
709,988	17987,31
710,176	18134,76
710,364	18001,65
710,551	17774,32
710,739	17686,26
710,927	17841,9
711,115	17723,12
711,303	17802,99
711,491	17139,45
711,679	17407,73
711,866	17317,62
712,054	17448,69
712,242	17176,31
712,43	17454,84
712,617	17299,19
712,805	17336,06
712,993	17114,87
713,181	17432,31
713,368	17297,14
713,556	17471,22
713,744	17252,09
713,931	17213,18
714,119	17360,63
714,306	17188,6
714,494	16676,61
714,682	16897,79
714,869	16535,3
715,057	17030,91
715,244	16891,65
715,432	16897,79
715,619	15843,09
715,807	16508,68
715,994	16381,7
716,182	15992,59
716,369	16011,02
716,556	15580,95
716,744	15421,2
716,931	15283,99
717,119	15152,92
717,306	15240,98
717,493	14307,11
717,681	14649,12
717,868	13944,62
718,055	14120,74
718,242	13825,84
718,43	13821,74
718,617	13444,91
718,804	13449,01
718,991	13297,46
719,179	13713,2
719,366	13066,04
719,553	13502,26
719,74	13356,85
719,927	13530,93
720,114	13549,36
720,301	13715,25
720,488	13711,15
720,676	13776,69
720,863	14194,47
721,05	14796,57
721,237	14374,69
721,424	14513,95
721,611	14815,01
721,798	14864,16
721,985	14661,41
722,172	14300,97
722,358	14055,21
722,545	14280,49
722,732	14051,11
722,919	14243,62
723,106	13758,25
723,293	13807,41
723,48	13784,88
723,667	13567,79
723,853	12990,27
724,04	13582,13
724,227	13604,66
724,414	13547,31
724,6	13219,64
724,787	13686,58
724,974	13625,14
725,161	13457,2
725,347	13311,8
725,534	13809,45
725,72	13793,07
725,907	13897,52
726,094	13688,62
726,28	13690,67
726,467	13455,15
726,653	13799,21
726,84	13414,2
727,027	13524,79
727,213	13285,17
727,4	13377,33
727,586	13479,73
727,773	13440,82
727,959	13307,7
728,145	13414,2
728,332	13166,39
728,518	13373,24
728,705	12803,9
728,891	12971,83
729,077	12691,26
729,264	13256,5
729,45	13395,76
729,636	13422,39
729,823	12926,78
730,009	13152,06
730,195	12775,23
730,382	13260,6
730,568	13100,86
730,754	13213,49
730,94	12808
731,126	13145,91
731,313	12914,49
731,499	13170,49
731,685	13008,7
731,871	13274,93
732,057	13422,39
732,243	13481,78
732,429	13758,25
732,615	13465,39
732,801	13424,44
732,987	13176,63
733,173	13193,01
733,359	13350,71
733,545	13416,24
733,731	13596,46
733,917	13301,56
734,103	13500,21
734,289	13240,12
734,475	13375,28
734,661	13547,31
734,847	13158,2
735,033	13037,37
735,219	13016,89
735,404	13078,33
735,59	13201,21
735,776	12959,55
735,962	12889,92
736,148	12959,55
736,333	12717,89
736,519	12891,96
736,705	13113,14
736,89	12869,44
737,076	13135,67
737,262	12889,92
737,447	13094,71
737,633	12947,26
737,819	12832,57
738,004	12463,94
738,19	12734,27
738,375	12394,31
738,561	12934,97
738,747	12504,9
738,932	12767,04
739,118	12580,67
739,303	12425,03
739,489	12478,27
739,674	12418,88
739,859	12525,38
740,045	12414,79
740,23	12144,45
740,416	12046,15
740,601	11937,61
740,786	12007,24
740,972	11814,73
741,157	12334,92
741,342	12515,14
741,528	12457,79
741,713	12023,62
741,898	12183,37
742,084	12070,73
742,269	12121,93
742,454	12060,49
742,639	12384,07
742,824	12154,69
743,01	12404,55
743,195	12310,34
743,38	12404,55
743,565	12308,29
743,75	12402,5
743,935	11880,27
744,12	12212,04
744,305	11937,61
744,49	11876,17
744,675	11896,65
744,86	12248,9
745,045	11933,51
745,23	11925,32
745,415	11835,21
745,6	11691,85
745,785	11491,15
745,97	11843,4
746,155	11628,37
746,34	11550,54
746,525	11374,42
746,71	11745,1
746,895	11411,28
747,079	11876,17
747,264	11718,48
747,449	12097,35
747,634	11941,71
747,819	11923,27
748,003	11499,34
748,188	11614,03
748,373	11722,57
748,557	11487,06
748,742	11147,09
748,927	11360,08
749,111	10893,15
749,296	11018,07
749,481	11069,27
749,665	11347,79
749,85	11016,02
750,034	11425,62
750,219	10856,28
750,404	11118,42
750,588	10854,23
750,773	11091,8
750,957	10831,71
751,141	10753,88
751,326	10790,75
751,51	11040,6
751,695	10760,03
751,879	11110,23
752,064	10702,68
752,248	10803,04
752,432	10897,24
752,617	10737,5
752,801	10549,09
752,985	10846,04
753,17	10602,33
753,354	10608,48
753,538	10479,46
753,722	10647,39
753,907	10379,11
754,091	10495,84
754,275	10528,61
754,459	10760,03
754,643	10346,34
754,828	10499,94
755,012	10254,18
755,196	10336,1
755,38	10094,44
755,564	10473,31
755,748	10002,28
755,932	10293,09
756,116	9625,45
756,3	10303,33
756,484	9807,72
756,668	9828,2
756,852	9893,74
757,036	10194,79
757,22	9727,85
757,404	10039,14
757,588	9713,52
757,772	9803,63
757,956	9869,16
758,14	9498,48
758,323	9168,76
758,507	9490,29
758,691	9015,16
758,875	7989,13
759,059	6834,07
759,242	6072,23
759,426	4528,06
759,61	3307,47
759,794	2068,45
759,977	1333,23
760,161	800,76
760,345	546,81
760,528	475,13
760,712	366,59
760,895	430,07
761,079	905,2
761,263	1380,33
761,446	1943,52
761,63	2185,18
761,813	2947,03
761,997	2543,58
762,18	2619,35
762,364	2160,61
762,547	2144,22
762,731	1968,1
762,914	1964
763,098	1847,27
763,281	2052,06
763,464	1994,72
763,648	2357,21
763,831	2318,3
764,015	2918,36
764,198	2977,75
764,381	3405,77
764,564	3553,23
764,748	4104,13
764,931	4278,21
765,114	5017,52
765,297	5035,96
765,481	5429,17
765,664	5578,67
765,847	6234,02
766,03	6215,59
766,213	6432,67
766,397	6764,44
766,58	7325,58
766,763	7653,26
766,946	7862,15
767,129	8230,79
767,312	8669,05
767,495	8527,74
767,678	9015,16
767,861	8947,58
768,044	9277,3
768,227	9518,96
768,41	9363,31
768,593	9432,94
768,776	9832,3
768,959	9932,65
769,142	10254,18
769,324	9625,45
769,507	10016,62
769,69	10096,49
769,873	10651,49
770,056	10260,32
770,239	10573,66
770,421	10164,07
770,604	10704,73
770,787	10450,78
770,97	11005,78
771,152	10356,58
771,335	10522,46
771,518	10561,37
771,7	10989,4
771,883	10569,57
772,066	10975,06
772,248	10563,42
772,431	10651,49
772,613	10512,22
772,796	10671,97
772,978	10641,25
773,161	10803,04
773,343	10725,21
773,526	10835,8
773,708	11020,12
773,891	10860,38
774,073	10696,54
774,256	10975,06
774,438	10882,91
774,621	10655,58
774,803	10843,99
774,985	10962,78
775,168	10739,55
775,35	11120,47
775,532	10995,54
775,715	11061,08
775,897	10747,74
776,079	11274,07
776,261	11171,67
776,444	11147,09
776,626	10983,26
776,808	10829,66
776,99	10669,92
777,173	10919,77
777,355	10534,75
777,537	10602,33
777,719	10364,77
777,901	10639,2
778,083	10426,21
778,265	10561,37
778,447	10321,76
778,629	10530,66
778,811	10180,45
778,993	10233,7
779,175	10194,79
779,357	10604,38
779,539	10045,29
779,721	10346,34
779,903	10143,59
780,085	10424,16
780,267	10248,04
780,449	10446,69
780,631	10186,6
780,812	10217,32
780,994	10139,49
781,176	10102,63
781,358	9832,3
781,54	9899,88
781,721	9992,04
781,903	9973,61
782,085	9834,35
782,267	9852,78
782,448	9740,14
782,63	9848,68
782,812	9684,84
782,993	9721,71
783,175	9287,54
783,357	9510,77
783,538	9174,9
783,72	9295,73
783,901	8980,34
784,083	9299,83
784,264	8949,62
784,446	9527,15
784,627	9146,23
784,809	9365,36
784,99	8763,26
785,172	9037,69
785,353	8851,32
785,535	9340,79
785,716	8949,62
785,897	9037,69
786,079	8986,49
786,26	8959,86
786,441	8693,63
786,623	8923
786,804	8693,63
786,985	8742,78
787,167	8529,79
787,348	8660,86
787,529	8628,09
787,71	8849,27
787,891	8423,3
788,073	8693,63
788,254	8329,09
788,435	8521,6
788,616	8333,18
788,797	8230,79
788,978	8185,73
789,159	8431,49
789,34	8175,49
789,522	8279,94
789,703	7899,02
789,884	8187,78
790,065	8036,23
790,246	8042,37
790,427	8011,65
790,607	7903,11
790,788	7569,29
790,969	7731,08
791,15	7423,89
791,331	7661,45
791,512	7481,23
791,693	7669,64
791,874	7397,26
792,054	7350,16
792,235	7073,68
792,416	7747,47
792,597	7118,74
792,778	7247,76
792,958	7178,13
793,139	7395,22
793,32	6895,51
793,5	7096,21
793,681	6834,07
793,862	7010,2
794,042	6832,02
794,223	7002,01
794,404	6891,41
794,584	7204,75
794,765	6907,8
794,945	7071,64
795,126	6653,85
795,306	6852,5
795,487	6942,61
795,667	7096,21
795,848	7040,92
796,028	6913,94
796,209	6569,88
796,389	7128,98
796,57	6678,43
796,75	7063,44
796,93	6565,79
797,111	6750,1
797,291	6723,48
797,471	6913,94
797,652	6430,62
797,832	6784,92
798,012	6561,69
798,192	6551,45
798,373	6596,51
798,553	6784,92
798,733	6209,44
798,913	6666,14
799,093	6293,41
799,274	6401,95
799,454	6375,33
799,634	6365,09
799,814	6084,52
799,994	6494,11
800,174	6313,89
800,354	6404
800,534	6272,93
800,714	6297,5
800,894	6383,52
801,074	6557,6
801,254	6332,32
801,434	6229,92
801,614	6154,15
801,794	6317,98
801,974	6082,47
802,154	6070,18
802,334	5967,78
802,514	6199,2
802,693	5988,26
802,873	5894,05
803,053	5697,45
803,233	5896,1
803,413	5900,2
803,592	5916,58
803,772	6109,09
803,952	5937,06
804,131	5605,29
804,311	5781,42
804,491	5660,59
804,67	5713,83
804,85	5576,62
805,03	5773,22
805,209	5400,49
805,389	5615,53
805,568	5482,41
805,748	5832,61
805,928	5484,46
806,107	5672,87
806,287	5363,63
806,466	5820,33
806,646	5748,65
806,825	5672,87
807,004	5466,03
807,184	5394,35
807,363	5322,67
807,543	5345,2
807,722	5033,91
807,901	5345,2
808,081	5162,93
808,26	5189,55
808,439	5136,31
808,619	5257,14
808,798	5081,01
808,977	5232,56
809,156	5263,28
809,336	5156,79
809,515	5083,06
809,694	5115,83
809,873	5150,64
810,052	5072,82
810,231	4954,04
810,411	5035,96
810,59	4837,3
810,769	5140,4
810,948	4937,65
811,127	4974,52
811,306	4945,84
811,485	5050,29
811,664	4796,34
811,843	5101,49
812,022	4816,82
812,201	4851,64
812,38	4913,08
812,559	4771,77
812,737	4556,73
812,916	4782,01
813,095	4388,8
813,274	4757,43
813,453	4274,11
813,632	4470,72
813,811	4378,56
813,989	4270,01
814,168	3983,3
814,347	4065,22
814,526	4151,23
814,704	4274,11
814,883	3807,17
815,062	3928
815,24	3866,56
815,419	3841,99
815,598	3639,24
815,776	3846,09
815,955	3618,76
816,133	3606,47
816,312	3506,12
816,49	3717,06
816,669	3338,19
816,847	3542,99
817,026	3444,68
817,204	3518,41
817,383	3504,07
817,561	3493,83
817,74	3549,13
817,918	3504,07
818,097	3182,54
818,275	3469,26
818,453	3239,89
818,632	3487,69
818,81	3094,48
818,988	3127,25
819,167	3067,86
819,345	3198,93
819,523	3157,97
819,701	3381,2
819,879	3217,36
820,058	3319,76
820,236	3135,44
820,414	3559,37
820,592	3397,58
820,77	3643,34
820,948	3536,84
821,127	3672,01
821,305	3241,93
821,483	3313,61
821,661	3135,44
821,839	3389,39
822,017	3182,54
822,195	3092,43
822,373	2734,04
822,551	2652,12
822,729	2697,17
822,907	2707,41
823,085	2529,24
823,262	2748,37
823,44	2635,74
823,618	3012,56
823,796	2889,68
823,974	3213,26
824,152	3041,23
824,329	3209,17
824,507	3082,19
824,685	3262,41
824,863	3143,63
825,04	3297,23
825,218	3235,79
825,396	3102,67
825,574	3086,29
825,751	3069,91
825,929	3020,75
826,107	3143,63
826,284	2985,94
826,462	3174,35
826,639	3076,05
826,817	3239,89
826,994	3024,85
827,172	2996,18
827,349	2852,82
827,527	2985,94
827,704	2619,35
827,882	2949,07
828,059	2592,73
828,237	2856,92
828,414	2641,88
828,591	2680,79
828,769	2629,59
828,946	2740,18
829,124	2578,39
829,301	2678,74
829,478	2678,74
829,655	2830,29
829,833	2605,02
830,01	2734,04
830,187	2717,65
830,364	2910,16
830,542	2600,92
830,719	2791,38
830,896	2527,19
831,073	2664,41
831,25	2469,85
831,427	2666,46
831,604	2365,4
831,782	2715,61
831,959	2463,71
832,136	2451,42
832,313	2287,58
832,49	2559,96
832,667	2504,67
832,844	2525,15
833,021	2269,15
833,198	2336,73
833,374	2189,28
833,551	2168,8
833,728	2181,09
833,905	2316,25
834,082	2201,57
834,259	2379,74
834,436	2324,44
834,612	2469,85
834,789	2355,16
834,966	2480,09
835,143	2215,9
835,319	2283,49
835,496	2281,44
835,673	2205,66
835,85	2213,85
836,026	2643,93
836,203	2301,92
836,38	2469,85
836,556	2148,32
836,733	2420,7
836,909	2404,32
837,086	2242,53
837,262	2025,44
837,439	2334,68
837,616	2152,42
837,792	2238,43
837,968	1912,8
838,145	2197,47
838,321	1947,62
838,498	2242,53
838,674	2021,35
838,851	2271,2
839,027	1982,43
839,203	2043,87
839,38	1968,1
839,556	2015,2
839,732	1996,77
839,909	2070,5
840,085	1908,71
840,261	2072,54
840,437	2052,06
840,614	2160,61
840,79	1951,71
840,966	2027,49
841,142	1943,52
841,318	2160,61
841,494	1851,36
841,671	1961,95
841,847	1751,01
842,023	1871,84
842,199	1832,93
842,375	1767,4
842,551	1691,62
842,727	1685,48
842,903	1724,39
843,079	1775,59
843,255	1644,52
843,431	1607,66
843,607	1538,02
843,783	1566,7
843,959	1382,38
844,134	1660,9
844,31	1714,15
844,486	1714,15
844,662	1619,94
844,838	1675,24
845,013	1658,85
845,189	1617,9
845,365	1802,21
845,541	1759,21
845,716	1607,66
845,892	1681,38
846,068	1652,71
846,244	1652,71
846,419	1490,92
846,595	1562,6
846,77	1521,64
846,946	1501,16
847,122	1464,3
847,297	1529,83
847,473	1368,04
847,648	1570,79
847,824	1419,24
847,999	1447,91
848,175	1320,94
848,35	1595,37
848,526	1341,42
848,701	1443,82
848,876	1239,02
849,052	1390,57
849,227	1210,35
849,403	1120,24
849,578	1089,52
849,753	1191,92
849,929	995,31
850,104	1204,21
850,279	1124,33
850,454	1181,68
850,63	919,54
850,805	1187,82
850,98	1040,37
851,155	1185,77
851,33	1028,08
851,505	1161,2
851,681	1040,37
851,856	1116,14
852,031	1153,01
852,206	1120,24
852,381	1038,32
852,556	1066,99
852,731	1046,51
852,906	1030,13
853,081	1046,51
853,256	903,15
853,431	862,19
853,606	739,32
853,781	585,72
853,956	643,06
854,131	520,18
854,305	595,96
854,48	632,82
854,655	677,88
854,83	659,45
855,005	886,77
855,18	739,32
855,354	823,28
855,529	937,97
855,704	960,5
855,879	743,41
856,053	808,95
856,228	827,38
856,403	854
856,577	798,71
856,752	954,35
856,926	774,13
857,101	880,63
857,276	817,14
857,45	864,24
857,625	806,9
857,799	800,76
857,974	741,36
858,148	942,07
858,323	727,03
858,497	839,67
858,672	827,38
858,846	767,99
859,02	747,51
859,195	727,03
859,369	698,36
859,543	712,69
859,718	616,44
859,892	626,68
860,066	620,53
860,241	612,34
860,415	636,92
860,589	669,69
860,763	593,91
860,938	653,3
861,112	585,72
861,286	690,17
861,46	665,59
861,634	708,6
861,808	665,59
861,982	575,48
862,157	583,67
862,331	604,15
862,505	555
862,679	544,76
862,853	481,27
863,027	546,81
863,201	389,11
863,375	563,19
863,549	403,45
863,722	514,04
863,896	483,32
864,07	540,66
864,244	534,52
864,418	563,19
864,592	448,51
864,766	563,19
864,939	448,51
865,113	425,98
865,287	391,16
865,461	419,83
865,634	309,24
865,808	364,54
865,982	210,94
866,156	247,8
866,329	333,82
866,503	251,9
866,676	305,15
866,85	333,82
867,024	274,43
867,197	339,96
867,371	382,97
867,544	378,87
867,718	352,25
867,891	317,44
868,065	352,25
868,238	395,26
868,412	397,31
868,585	354,3
868,759	266,24
868,932	387,07
869,105	325,63
869,279	364,54
869,452	366,59
869,625	315,39
869,799	342,01
869,972	389,11
870,145	262,14
870,319	344,06
870,492	313,34
870,665	301,05
870,838	290,81
871,011	266,24
871,185	317,44
871,358	309,24
871,531	274,43
871,704	301,05
871,877	331,77
872,05	307,2
872,223	227,32
872,396	249,85
872,569	251,9
872,742	284,67
872,915	231,42
873,088	258,04
873,261	198,65
873,434	249,85
873,607	186,37
873,78	266,24
873,953	225,28
874,126	225,28
874,299	245,76
874,471	227,32
874,644	198,65
874,817	237,56
874,99	227,32
875,163	212,99
875,335	163,84
875,508	167,93
875,681	178,17
875,853	184,32
876,026	202,75
876,199	221,18
876,371	182,27
876,544	200,7
876,717	217,08
876,889	227,32
877,062	215,04
877,234	112,64
877,407	268,28
877,579	198,65
877,752	116,73
877,924	161,79
878,097	169,98
878,269	137,21
878,442	126,97
878,614	120,83
878,786	139,26
878,959	180,22
879,131	124,93
879,303	169,98
879,476	157,69
879,648	169,98
879,82	92,16
879,993	215,04
880,165	94,21
880,337	96,25
880,509	53,25
880,681	88,06
880,854	124,93
881,026	135,17
881,198	161,79
881,37	79,87
881,542	169,98
881,714	141,31
881,886	83,97
882,058	67,58
882,23	102,4
882,402	120,83
882,574	118,78
882,746	69,63
882,918	104,45
883,09	149,5
883,262	159,74
883,434	151,55
883,606	63,49
883,778	118,78
883,95	94,21
884,122	178,17
884,293	118,78
884,465	141,31
884,637	96,25
884,809	153,6
884,98	139,26
885,152	32,77
885,324	83,97
885,496	153,6
885,667	47,1
885,839	59,39
886,011	61,44
886,182	145,41
886,354	22,53
886,525	71,68
886,697	155,65
886,869	120,83
887,04	94,21
887,212	59,39
887,383	81,92
887,555	16,38
887,726	86,01
887,897	79,87
888,069	143,36
888,24	126,97
888,412	47,1
888,583	71,68
888,754	63,49
888,926	71,68
889,097	114,69
889,268	71,68
889,44	59,39
889,611	34,82
889,782	104,45
889,953	75,77
890,125	88,06
890,296	30,72
890,467	-10,24
890,638	26,62
890,809	36,86
890,98	88,06
891,151	49,15
891,323	102,4
891,494	47,1
891,665	6,14
891,836	28,67
892,007	55,3
892,178	86,01
892,349	28,67
892,52	86,01
892,691	8,19
892,862	51,2
893,032	55,3
893,203	45,06
893,374	79,87
893,545	12,29
893,716	45,06
893,887	22,53
894,057	57,34
894,228	51,2
894,399	-24,58
894,57	26,62
894,74	75,77
894,911	34,82
895,082	4,1
895,253	88,06
895,423	55,3
895,594	-2,05
895,764	45,06
895,935	83,97
896,106	6,14
896,276	6,14
896,447	-28,67
896,617	20,48
896,788	30,72
896,958	-51,2
897,129	43,01
897,299	30,72
897,47	63,49
897,64	28,67
897,81	43,01
897,981	8,19
898,151	-26,62
898,322	-2,05
898,492	-10,24
898,662	22,53
898,832	10,24
899,003	-26,62
899,173	-26,62
899,343	-34,82
899,513	59,39
