Data from atmo_200_USB4F104151__1__16-41-42-846.txt Node

Date: Thu Mar 07 16:41:42 EST 2024
User: lauri
Spectrometer: USB4F10415
Trigger mode: 4
Integration Time (sec): 2,000000E-1
Scans to average: 1
Electric dark correction enabled: true
Nonlinearity correction enabled: false
Boxcar width: 0
XAxis mode: Wavelengths
Number of Pixels in Spectrum: 3648
>>>>>Begin Spectral Data<<<<<
178,204	-154,28
178,424	-154,28
178,644	-154,28
178,864	-164,52
179,084	-103,08
179,304	56,66
179,524	15,7
179,744	27,99
179,964	50,52
180,184	-43,69
180,404	21,85
180,624	-76,46
180,844	54,61
181,064	-0,68
181,283	-12,97
181,503	-60,07
181,723	-33,45
181,943	-60,07
182,163	167,25
182,383	85,33
182,602	150,87
182,822	157,01
183,042	126,29
183,262	109,91
183,482	95,57
183,701	52,56
183,921	150,87
184,141	27,99
184,361	60,76
184,58	93,52
184,8	66,9
185,02	83,28
185,239	85,33
185,459	124,24
185,679	148,82
185,898	11,61
186,118	122,2
186,338	142,68
186,557	136,53
186,777	114
186,997	122,2
187,216	75,09
187,436	169,3
187,655	103,76
187,875	132,44
188,095	99,67
188,314	126,29
188,534	109,91
188,753	81,24
188,973	134,48
189,192	179,54
189,412	101,72
189,631	128,34
189,851	126,29
190,07	126,29
190,29	140,63
190,509	140,63
190,729	30,04
190,948	185,68
191,168	324,94
191,387	101,72
191,607	50,52
191,826	99,67
192,045	101,72
192,265	62,8
192,484	87,38
192,704	21,85
192,923	38,23
193,142	163,15
193,362	79,19
193,581	122,2
193,8	97,62
194,02	132,44
194,239	83,28
194,458	109,91
194,678	89,43
194,897	66,9
195,116	40,28
195,335	40,28
195,555	101,72
195,774	81,24
195,993	167,25
196,212	91,48
196,432	73,04
196,651	118,1
196,87	85,33
197,089	208,21
197,308	109,91
197,528	152,92
197,747	75,09
197,966	105,81
198,185	159,06
198,404	93,52
198,623	54,61
198,842	179,54
199,062	68,95
199,281	107,86
199,5	171,35
199,719	126,29
199,938	134,48
200,157	177,49
200,376	132,44
200,595	99,67
200,814	120,15
201,033	142,68
201,252	150,87
201,471	105,81
201,69	181,59
201,909	107,86
202,128	114
202,347	91,48
202,566	93,52
202,785	71
203,004	85,33
203,223	224,59
203,442	52,56
203,661	68,95
203,879	122,2
204,098	95,57
204,317	68,95
204,536	193,87
204,755	126,29
204,974	114
205,193	89,43
205,411	159,06
205,63	17,75
205,849	111,96
206,068	95,57
206,287	64,85
206,505	181,59
206,724	87,38
206,943	81,24
207,162	50,52
207,381	152,92
207,599	99,67
207,818	13,65
208,037	46,42
208,255	81,24
208,474	99,67
208,693	118,1
208,911	58,71
209,13	99,67
209,349	152,92
209,567	105,81
209,786	87,38
210,005	116,05
210,223	58,71
210,442	83,28
210,661	138,58
210,879	38,23
211,098	77,14
211,316	118,1
211,535	93,52
211,753	50,52
211,972	85,33
212,191	150,87
212,409	40,28
212,628	89,43
212,846	87,38
213,065	130,39
213,283	177,49
213,502	71
213,72	54,61
213,938	93,52
214,157	142,68
214,375	154,96
214,594	150,87
214,812	17,75
215,031	114
215,249	132,44
215,467	99,67
215,686	81,24
215,904	71
216,122	140,63
216,341	99,67
216,559	120,15
216,778	48,47
216,996	97,62
217,214	50,52
217,432	148,82
217,651	34,13
217,869	85,33
218,087	21,85
218,306	107,86
218,524	193,87
218,742	77,14
218,96	114
219,179	58,71
219,397	138,58
219,615	216,4
219,833	138,58
220,051	30,04
220,27	200,02
220,488	163,15
220,706	91,48
220,924	126,29
221,142	89,43
221,36	134,48
221,578	87,38
221,796	128,34
222,015	132,44
222,233	56,66
222,451	134,48
222,669	79,19
222,887	146,77
223,105	38,23
223,323	120,15
223,541	52,56
223,759	173,39
223,977	83,28
224,195	228,69
224,413	142,68
224,631	124,24
224,849	107,86
225,067	204,11
225,285	124,24
225,503	73,04
225,721	85,33
225,939	85,33
226,157	91,48
226,375	189,78
226,592	71
226,81	116,05
227,028	146,77
227,246	195,92
227,464	99,67
227,682	73,04
227,9	64,85
228,117	101,72
228,335	126,29
228,553	134,48
228,771	136,53
228,989	95,57
229,206	128,34
229,424	175,44
229,642	77,14
229,86	142,68
230,077	114
230,295	161,11
230,513	140,63
230,731	83,28
230,948	243,03
231,166	183,63
231,384	79,19
231,601	118,1
231,819	187,73
232,037	103,76
232,254	126,29
232,472	140,63
232,689	124,24
232,907	79,19
233,125	154,96
233,342	50,52
233,56	25,94
233,777	38,23
233,995	75,09
234,213	161,11
234,43	116,05
234,648	118,1
234,865	114
235,083	107,86
235,3	126,29
235,518	148,82
235,735	175,44
235,953	116,05
236,17	163,15
236,388	27,99
236,605	185,68
236,822	85,33
237,04	138,58
237,257	136,53
237,475	81,24
237,692	128,34
237,909	169,3
238,127	134,48
238,344	163,15
238,562	107,86
238,779	21,85
238,996	71
239,214	167,25
239,431	85,33
239,648	128,34
239,865	183,63
240,083	157,01
240,3	107,86
240,517	64,85
240,735	116,05
240,952	202,07
241,169	130,39
241,386	181,59
241,603	154,96
241,821	161,11
242,038	83,28
242,255	114
242,472	52,56
242,689	46,42
242,907	171,35
243,124	114
243,341	165,2
243,558	71
243,775	154,96
243,992	64,85
244,209	195,92
244,426	222,55
244,643	216,4
244,86	75,09
245,078	148,82
245,295	62,8
245,512	107,86
245,729	124,24
245,946	111,96
246,163	132,44
246,38	122,2
246,597	148,82
246,814	183,63
247,031	124,24
247,248	148,82
247,464	103,76
247,681	222,55
247,898	107,86
248,115	107,86
248,332	173,39
248,549	107,86
248,766	204,11
248,983	157,01
249,2	83,28
249,417	191,83
249,633	23,89
249,85	177,49
250,067	95,57
250,284	146,77
250,501	83,28
250,717	109,91
250,934	87,38
251,151	71
251,368	101,72
251,585	120,15
251,801	64,85
252,018	105,81
252,235	202,07
252,451	19,8
252,668	116,05
252,885	165,2
253,102	159,06
253,318	187,73
253,535	79,19
253,752	114
253,968	124,24
254,185	87,38
254,401	138,58
254,618	118,1
254,835	60,76
255,051	167,25
255,268	56,66
255,484	163,15
255,701	142,68
255,917	99,67
256,134	171,35
256,351	75,09
256,567	152,92
256,784	48,47
257	103,76
257,217	144,72
257,433	62,8
257,65	152,92
257,866	95,57
258,082	103,76
258,299	75,09
258,515	157,01
258,732	124,24
258,948	126,29
259,165	101,72
259,381	120,15
259,597	116,05
259,814	181,59
260,03	144,72
260,246	179,54
260,463	105,81
260,679	128,34
260,895	124,24
261,112	81,24
261,328	105,81
261,544	116,05
261,761	161,11
261,977	32,08
262,193	122,2
262,409	148,82
262,626	144,72
262,842	181,59
263,058	27,99
263,274	134,48
263,49	109,91
263,707	173,39
263,923	124,24
264,139	165,2
264,355	87,38
264,571	144,72
264,787	140,63
265,004	206,16
265,22	107,86
265,436	114
265,652	77,14
265,868	116,05
266,084	122,2
266,3	122,2
266,516	32,08
266,732	107,86
266,948	175,44
267,164	114
267,38	118,1
267,596	148,82
267,812	197,97
268,028	126,29
268,244	157,01
268,46	109,91
268,676	173,39
268,892	134,48
269,108	103,76
269,324	130,39
269,54	60,76
269,756	165,2
269,972	116,05
270,188	126,29
270,403	107,86
270,619	128,34
270,835	171,35
271,051	185,68
271,267	79,19
271,483	122,2
271,698	152,92
271,914	138,58
272,13	101,72
272,346	114
272,562	118,1
272,777	200,02
272,993	154,96
273,209	71
273,425	114
273,64	11,61
273,856	173,39
274,072	77,14
274,287	148,82
274,503	150,87
274,719	128,34
274,934	183,63
275,15	44,37
275,366	118,1
275,581	58,71
275,797	120,15
276,012	138,58
276,228	109,91
276,444	126,29
276,659	140,63
276,875	101,72
277,09	134,48
277,306	99,67
277,521	240,98
277,737	116,05
277,952	189,78
278,168	165,2
278,383	173,39
278,599	175,44
278,814	163,15
279,03	163,15
279,245	175,44
279,461	204,11
279,676	202,07
279,892	91,48
280,107	75,09
280,322	144,72
280,538	167,25
280,753	138,58
280,969	208,21
281,184	126,29
281,399	183,63
281,615	159,06
281,83	136,53
282,045	122,2
282,26	128,34
282,476	134,48
282,691	124,24
282,906	111,96
283,122	144,72
283,337	134,48
283,552	181,59
283,767	120,15
283,983	159,06
284,198	126,29
284,413	177,49
284,628	122,2
284,843	157,01
285,058	126,29
285,274	79,19
285,489	120,15
285,704	216,4
285,919	103,76
286,134	116,05
286,349	95,57
286,564	138,58
286,779	103,76
286,995	99,67
287,21	60,76
287,425	224,59
287,64	157,01
287,855	202,07
288,07	32,08
288,285	152,92
288,5	91,48
288,715	130,39
288,93	167,25
289,145	159,06
289,36	195,92
289,575	109,91
289,79	183,63
290,004	136,53
290,219	140,63
290,434	169,3
290,649	116,05
290,864	126,29
291,079	91,48
291,294	142,68
291,509	169,3
291,724	169,3
291,938	148,82
292,153	97,62
292,368	77,14
292,583	208,21
292,798	130,39
293,012	214,35
293,227	71
293,442	142,68
293,657	185,68
293,871	179,54
294,086	200,02
294,301	200,02
294,516	181,59
294,73	185,68
294,945	134,48
295,16	195,92
295,374	200,02
295,589	132,44
295,804	167,25
296,018	109,91
296,233	200,02
296,447	97,62
296,662	87,38
296,877	169,3
297,091	193,87
297,306	157,01
297,52	132,44
297,735	224,59
297,949	140,63
298,164	249,17
298,378	99,67
298,593	91,48
298,807	132,44
299,022	200,02
299,236	171,35
299,451	136,53
299,665	116,05
299,88	101,72
300,094	138,58
300,309	218,45
300,523	208,21
300,737	191,83
300,952	193,87
301,166	181,59
301,381	134,48
301,595	189,78
301,809	91,48
302,024	118,1
302,238	99,67
302,452	222,55
302,667	210,26
302,881	189,78
303,095	185,68
303,309	177,49
303,524	142,68
303,738	103,76
303,952	68,95
304,166	161,11
304,381	109,91
304,595	259,41
304,809	81,24
305,023	202,07
305,237	163,15
305,452	163,15
305,666	161,11
305,88	222,55
306,094	255,31
306,308	259,41
306,522	265,55
306,736	267,6
306,95	300,37
307,164	138,58
307,379	251,22
307,593	271,7
307,807	333,14
308,021	300,37
308,235	267,6
308,449	228,69
308,663	292,18
308,877	458,06
309,091	396,62
309,305	380,24
309,519	361,81
309,733	499,02
309,947	410,96
310,161	435,53
310,374	529,74
310,588	597,32
310,802	511,31
311,016	634,19
311,23	607,56
311,444	601,42
311,658	615,76
311,872	675,15
312,085	849,22
312,299	748,87
312,513	726,35
312,727	830,79
312,941	820,55
313,154	879,94
313,368	925
313,582	1070,41
313,796	1062,21
314,009	1049,93
314,223	1162,56
314,437	1264,96
314,651	1324,35
314,864	1346,88
315,078	1568,06
315,292	1559,87
315,505	1604,92
315,719	1715,52
315,933	1916,22
316,146	1975,61
316,36	2059,57
316,573	2284,85
316,787	2301,23
317,001	2446,64
317,214	2620,72
317,428	2571,57
317,641	2944,3
317,855	2927,91
318,068	3159,33
318,282	3210,53
318,495	3374,37
318,709	3423,52
318,922	3620,13
319,136	3593,5
319,349	3509,54
319,563	3661,09
319,776	3773,72
319,99	3642,65
320,203	3773,72
320,417	3706,14
320,63	4023,58
320,843	4089,11
321,057	4351,25
321,27	4435,22
321,483	4576,53
321,697	4877,58
321,91	4988,17
322,124	5141,77
322,337	5328,13
322,55	5494,02
322,763	5823,74
322,977	5844,22
323,19	6362,36
323,403	6653,17
323,617	6946,03
323,83	7363,81
324,043	7474,4
324,256	7845,09
324,469	8043,74
324,683	8359,13
324,896	8305,88
325,109	8379,61
325,322	8471,76
325,535	8627,41
325,748	8473,81
325,962	8844,49
326,175	9071,82
326,388	9284,81
326,601	9792,7
326,814	9938,11
327,027	10017,98
327,24	10431,67
327,453	10790,06
327,666	10615,99
327,879	10763,44
328,092	11027,63
328,305	10804,4
328,518	10747,06
328,731	10974,38
328,944	10871,98
329,157	10923,18
329,37	11017,39
329,583	11019,44
329,796	11179,18
330,009	10994,86
330,222	11330,73
330,435	11080,88
330,648	11099,31
330,861	11416,74
331,073	11392,17
331,286	11250,86
331,499	11510,95
331,712	11357,35
331,925	11721,89
332,138	11562,15
332,35	11791,52
332,563	11816,1
332,776	11803,81
332,989	11930,78
333,202	12108,96
333,414	11949,22
333,627	11836,58
333,84	11717,79
334,053	11426,98
334,265	11680,93
334,478	11496,61
334,691	11252,91
334,903	11277,48
335,116	11199,66
335,329	11334,82
335,541	11707,55
335,754	11836,58
335,966	11844,77
336,179	12131,48
336,392	12514,45
336,604	12459,16
336,817	12790,93
337,029	13167,76
337,242	13024,4
337,454	13382,79
337,667	13577,35
337,88	13841,54
338,092	13773,96
338,305	13806,72
338,517	14042,24
338,729	13968,51
338,942	13952,13
339,154	14017,66
339,367	14142,59
339,579	14392,44
339,792	14421,11
340,004	14462,07
340,217	14521,46
340,429	14525,56
340,641	14523,51
340,854	14556,28
341,066	14367,87
341,278	14265,47
341,491	14204,03
341,703	13962,37
341,915	13773,96
342,128	13646,98
342,34	13474,95
342,552	13579,4
342,764	13665,41
342,977	13657,22
343,189	13888,64
343,401	14025,86
343,613	13915,26
343,826	14253,18
344,038	14126,21
344,25	14437,5
344,462	14511,22
344,674	14228,6
344,886	14595,19
345,099	14224,51
345,311	14562,42
345,523	14691,45
345,735	14484,6
345,947	14554,23
346,159	14552,18
346,371	14566,52
346,583	14509,18
346,795	14597,24
347,007	14787,7
347,219	14847,09
347,431	14994,54
347,643	15254,64
347,855	15332,46
348,067	15789,16
348,279	16006,24
348,491	15991,91
348,703	16125,02
348,915	16252
349,127	16311,39
349,339	16268,38
349,551	16276,57
349,763	15721,57
349,975	16057,44
350,187	15684,71
350,399	16329,82
350,61	16182,37
350,822	16198,75
351,034	16600,15
351,246	16231,52
351,458	16743,51
351,669	17251,41
351,881	16970,83
352,093	17441,87
352,305	17415,24
352,517	17783,88
352,728	17951,81
352,94	18080,83
353,152	17654,86
353,363	17992,77
353,575	17574,99
353,787	17513,55
353,999	17093,71
354,21	17149,01
354,422	16239,71
354,633	16299,1
354,845	15518,82
355,057	15324,27
355,268	15103,09
355,48	14701,68
355,692	14468,22
355,903	14591,09
356,115	13980,8
356,326	14068,86
356,538	14109,82
356,749	14593,14
356,961	14713,97
357,172	15436,91
357,384	15473,77
357,595	15975,52
357,807	16075,87
358,018	16602,2
358,23	16610,39
358,441	16688,21
358,653	16864,34
358,864	16452,7
359,075	16561,24
359,287	16505,95
359,498	16723,03
359,709	16815,19
359,921	16766,04
360,132	17263,69
360,344	17505,35
360,555	17509,45
360,766	17822,79
360,977	18015,3
361,189	17994,82
361,4	18205,76
361,611	18535,48
361,823	18543,67
362,034	19151,92
362,245	19196,98
362,456	19303,47
362,667	19575,85
362,879	20044,84
363,09	20366,37
363,301	20818,97
363,512	20902,93
363,723	21455,89
363,935	21933,06
364,146	22223,87
364,357	22457,34
364,568	22572,03
364,779	23014,39
364,99	22541,31
365,201	22754,3
365,412	22422,53
365,623	22688,76
365,834	22359,04
366,045	22762,49
366,256	22283,27
366,467	22543,36
366,678	22524,93
366,889	22500,35
367,1	22656
367,311	22676,48
367,522	22881,27
367,733	22854,65
367,944	22709,24
368,155	23286,77
368,366	23069,69
368,577	23004,15
368,788	22694,91
368,999	22856,7
369,209	22842,36
369,42	22457,34
369,631	22592,51
369,842	22410,24
370,053	22221,83
370,264	21576,72
370,474	21326,86
370,685	21376,02
370,896	20284,45
371,107	20460,57
371,317	19907,62
371,528	19586,09
371,739	19106,87
371,95	18883,64
372,16	18795,57
372,371	19168,3
372,582	18979,89
372,792	18943,03
373,003	18908,21
373,214	19639,34
373,424	19506,22
373,635	20069,41
373,846	20409,37
374,056	20816,92
374,267	20947,99
374,477	21369,87
374,688	21691,4
374,898	22217,73
375,109	22739,96
375,319	23235,57
375,53	24032,23
375,74	24863,71
375,951	24589,28
376,161	25064,41
376,372	25430,99
376,582	24808,41
376,793	24730,59
377,003	24857,56
377,214	24308,71
377,424	24093,67
377,635	24368,1
377,845	23649,26
378,055	23364,59
378,266	23843,82
378,476	23110,64
378,686	23505,9
378,897	23182,32
379,107	22899,7
379,317	22881,27
379,528	22047,75
379,738	21367,82
379,948	21062,68
380,158	19612,71
380,369	19581,99
380,579	18703,42
380,789	18009,15
380,999	17644,62
381,21	16993,36
381,42	16688,21
381,63	16850
381,84	17106
382,05	17159,25
382,261	17153,1
382,471	17634,38
382,681	17888,32
382,891	18725,94
383,101	18963,51
383,311	19188,78
383,521	19420,2
383,731	19747,88
383,941	19618,86
384,151	19788,84
384,361	20409,37
384,571	20585,5
384,781	20317,22
384,991	21259,28
385,201	20343,84
385,411	20923,41
385,621	20589,6
385,831	20874,26
386,041	20694,04
386,251	20917,27
386,461	20524,06
386,671	21253,14
386,881	21447,69
387,091	21392,4
387,301	21636,11
387,511	22696,95
387,72	22588,41
387,93	22930,42
388,14	23446,51
388,35	24370,15
388,56	24484,83
388,769	24364
388,979	24869,85
389,189	25279,44
389,399	25330,64
389,609	24931,29
389,818	24816,6
390,028	24320,99
390,238	23938,02
390,447	23239,67
390,657	21459,98
390,867	20939,8
391,076	19143,73
391,286	18795,57
391,496	17865,8
391,705	17724,49
391,915	17474,63
392,125	17871,94
392,334	18263,1
392,544	18910,26
392,753	19022,9
392,963	20536,35
393,172	20823,06
393,382	21150,74
393,591	21988,36
393,801	21593,1
394,01	20696,09
394,22	20841,5
394,429	20837,4
394,639	19962,92
394,848	19655,72
395,058	19225,65
395,267	19344,43
395,477	19502,12
395,686	20988,95
395,895	21740,55
396,105	23022,58
396,314	23665,64
396,524	24697,82
396,733	25783,24
396,942	27210,68
397,152	28418,98
397,361	28285,86
397,57	29215,64
397,78	29447,06
397,989	30364,55
398,198	32332,65
398,407	32082,8
398,617	31642,48
398,826	33360,73
399,035	32238,44
399,244	32312,17
399,453	32557,92
399,663	34134,86
399,872	34151,24
400,081	34696
400,29	33364,82
400,499	34288,46
400,708	33459,03
400,917	34431,82
401,127	33667,92
401,336	33753,94
401,545	33403,74
401,754	33805,14
401,963	34229,07
402,172	33700,69
402,381	33082,2
402,59	33717,07
402,799	33317,72
403,008	32988
403,217	32738,15
403,426	32901,98
403,635	32535,4
403,844	32549,73
404,053	33059,68
404,262	32441,19
404,471	32373,61
404,68	32095,08
404,888	31540,08
405,097	31748,98
405,306	32424,81
405,515	32299,88
405,724	32138,09
405,933	33407,83
406,142	32678,75
406,35	32422,76
406,559	34710,34
406,768	34290,51
406,977	33635,16
407,185	34663,24
407,394	33600,34
407,603	33868,62
407,812	33684,31
408,02	33491,8
408,229	33479,51
408,438	32717,67
408,646	32990,05
408,855	32803,68
409,064	32820,06
409,272	33692,5
409,481	35150,65
409,69	34646,85
409,898	34276,17
410,107	35429,18
410,315	33932,11
410,524	35773,24
410,733	34745,16
410,941	34861,89
411,15	34870,08
411,358	34790,21
411,567	35273,53
411,775	35291,96
411,984	34511,69
412,192	35502,9
412,401	35025,73
412,609	35586,87
412,818	35048,25
413,026	35177,28
413,234	34687,81
413,443	34804,55
413,651	34538,31
413,86	34896,7
414,068	35222,33
414,276	35214,14
414,485	34333,51
414,693	34792,26
414,901	34868,03
415,11	35830,58
415,318	34005,84
415,526	34464,58
415,734	33547,09
415,943	33999,69
416,151	33678,16
416,359	33446,74
416,567	33098,59
416,776	33039,2
416,984	33307,48
417,192	33495,89
417,4	32736,1
417,608	31826,8
417,817	32519,01
418,025	32621,41
418,233	33049,44
418,441	32220,01
418,649	33061,72
418,857	34290,51
419,065	33395,54
419,273	32838,5
419,481	33047,39
419,689	34087,76
419,897	33934,16
420,105	33735,51
420,313	32648,04
420,521	32695,14
420,729	31964,01
420,937	32136,04
421,145	31679,35
421,353	32369,51
421,561	32308,07
421,769	32185,19
421,977	32881,5
422,185	31030,14
422,393	32375,66
422,601	33350,49
422,809	31818,61
423,017	31552,37
423,224	31628,15
423,432	31890,29
423,64	31337,34
423,848	32576,36
424,056	31001,47
424,263	32160,62
424,471	31622
424,679	30854,01
424,887	31550,32
425,094	31794,03
425,302	30610,31
425,51	31470,45
425,718	30665,6
425,925	30831,49
426,133	30176,14
426,341	31495,03
426,548	30942,08
426,756	30716,8
426,964	29914
427,171	31015,8
427,379	30286,73
427,586	29094,81
427,794	28982,17
428,001	28877,72
428,209	28240,81
428,417	26678,21
428,624	27069,37
428,832	26233,8
429,039	25625,55
429,247	25476,05
429,454	27018,17
429,662	28840,86
429,869	27079,61
430,076	29285,27
430,284	28486,56
430,491	29631,38
430,699	30901,12
430,906	30798,72
431,114	30460,8
431,321	31306,62
431,528	31208,31
431,736	32625,51
431,943	33530,71
432,15	31724,4
432,358	31466,36
432,565	32402,28
432,772	31533,94
432,979	32686,95
433,187	32813,92
433,394	33104,73
433,601	34059,09
433,808	34157,39
434,016	33346,39
434,223	34855,75
434,43	36401,96
434,637	35091,26
434,844	36614,95
435,052	36823,84
435,259	35779,38
435,466	34825,03
435,673	34216,78
435,88	35763
436,087	35719,99
436,294	34900,8
436,501	33196,89
436,708	32877,41
436,915	33528,66
437,122	34302,79
437,329	33213,27
437,537	33999,69
437,743	33966,93
437,95	32992,09
438,157	34149,2
438,364	35044,16
438,571	34386,76
438,778	34132,81
438,985	35879,73
439,192	35218,24
439,399	35611,45
439,606	34294,6
439,813	36578,09
440,02	37487,39
440,227	37124,89
440,433	36145,97
440,64	37288,73
440,847	36320,04
441,054	36746,02
441,261	37972,75
441,467	36707,11
441,674	36428,59
441,881	37645,08
442,088	37020,45
442,294	36746,02
442,501	36666,15
442,708	36786,98
442,914	37810,96
443,121	38390,54
443,328	36571,94
443,534	38335,24
443,741	36279,08
443,948	35136,32
444,154	36950,82
444,361	35502,9
444,568	35380,03
444,774	34712,39
444,981	34794,31
445,187	35842,87
445,394	36516,65
445,6	35736,37
445,807	38474,51
446,013	36588,33
446,22	37028,64
446,426	37370,65
446,633	37427,99
446,839	37692,18
447,046	35877,68
447,252	37909,27
447,459	37419,8
447,665	36885,28
447,871	37737,24
448,078	38761,22
448,284	36922,15
448,491	37868,31
448,697	38593,29
448,903	38904,58
449,11	38492,94
449,316	37999,38
449,522	38800,13
449,728	38988,55
449,935	38574,86
450,141	38359,82
450,347	38890,24
450,553	36928,29
450,76	37143,33
450,966	36891,43
451,172	36516,65
451,378	37335,84
451,584	36700,97
451,791	36154,16
451,997	36045,62
452,203	36664,1
452,409	37309,21
452,615	37147,42
452,821	35638,07
453,027	35507
453,233	37198,62
453,44	35267,39
453,646	36752,16
453,852	36762,4
454,058	37505,82
454,264	36815,65
454,47	38066,96
454,676	37821,2
454,882	39121,66
455,088	36707,11
455,294	37763,86
455,5	38351,63
455,705	38378,25
455,911	37997,33
456,117	37823,25
456,323	38413,07
456,529	36860,71
456,735	38208,27
456,941	37526,3
457,147	38216,46
457,352	37235,49
457,558	37247,77
457,764	38122,26
457,97	37630,74
458,176	37581,59
458,381	37782,29
458,587	37167,9
458,793	37817,11
458,999	37010,21
459,204	40164,08
459,41	40592,11
459,616	38382,35
459,821	39215,87
460,027	40444,65
460,233	40688,36
460,438	39199,49
460,644	40334,06
460,85	39498,49
461,055	39875,32
461,261	40332,01
461,466	38986,5
461,672	38349,58
461,878	41040,61
462,083	38863,62
462,289	38595,34
462,494	39461,63
462,7	38423,31
462,905	37759,77
463,111	39494,39
463,316	39758,58
463,522	40157,94
463,727	40557,29
463,932	40772,33
464,138	41288,42
464,343	41419,49
464,549	41059,04
464,754	42818,25
464,959	42597,07
465,165	42873,54
465,37	41493,21
465,575	41011,94
465,781	42633,93
465,986	43504,32
466,191	42437,33
466,397	42445,52
466,602	41044,71
466,807	42797,77
467,012	42721,99
467,218	43213,51
467,423	43403,97
467,628	44587,69
467,833	46502,54
468,038	44397,23
468,244	44108,47
468,449	45505,18
468,654	45011,62
468,859	44223,15
469,064	44294,83
469,269	43500,22
469,474	44706,48
469,679	45810,33
469,885	45146,79
470,09	46813,83
470,295	47215,24
470,5	46463,63
470,705	47336,07
470,91	46963,34
471,115	47256,2
471,32	48898,67
471,525	48200,31
471,73	48181,88
471,935	48570,99
472,139	48249,46
472,344	48693,87
472,549	49013,35
472,754	49373,8
472,959	49541,73
473,164	48804,46
473,369	49222,25
473,574	50991,69
473,778	50807,37
473,983	50977,36
474,188	51864,13
474,393	50428,5
474,598	51135,05
474,802	50664,02
475,007	51057,23
475,212	51763,78
475,417	51128,91
475,621	51700,29
475,826	53113,39
476,031	52873,77
476,235	53285,42
476,44	54061,6
476,645	53756,45
476,849	54895,12
477,054	55028,24
477,259	55048,72
477,463	55515,65
477,668	54663,7
477,872	56324,6
478,077	55947,78
478,282	56463,86
478,486	56662,52
478,691	56504,82
478,895	57029,1
479,1	56744,44
479,304	57891,3
479,509	57166,32
479,713	58102,24
479,918	58089,95
480,122	58175,97
480,326	58481,11
480,531	59378,12
480,735	59376,08
480,94	59277,77
481,144	60547,51
481,348	58782,16
481,553	59765,19
481,757	59421,13
481,961	60002,75
482,166	60111,3
482,37	60225,98
482,574	58919,38
482,778	59654,6
482,983	60557,75
483,187	59898,31
483,391	60252,61
483,595	59230,67
483,8	58620,37
484,004	58012,13
484,208	57106,93
484,412	55767,55
484,616	55360,01
484,821	54956,56
485,025	53914,14
485,229	54995,47
485,433	54661,65
485,637	55505,41
485,841	55333,38
486,045	56048,13
486,249	56764,92
486,453	57356,78
486,657	58069,47
486,861	58700,25
487,065	57203,18
487,269	58589,66
487,473	57997,79
487,677	59150,8
487,881	60174,78
488,085	60185,02
488,289	60596,66
488,493	61202,86
488,697	61700,52
488,901	61802,92
489,105	61649,32
489,309	61811,11
489,512	61899,17
489,716	61753,77
489,92	61211,06
490,124	61368,75
490,328	61413,8
490,531	60424,64
490,735	60457,4
490,939	60836,28
491,143	60502,46
491,346	60443,07
491,55	60817,85
491,754	61419,95
491,958	61624,74
492,161	61065,65
492,365	61340,08
492,569	61376,94
492,772	61237,68
492,976	61575,59
493,18	62196,13
493,383	62839,19
493,587	62607,77
493,79	62802,33
493,994	61874,6
494,197	62357,92
494,401	62615,96
494,605	61807,01
494,808	62509,47
495,012	62296,48
495,215	62093,73
495,419	62736,79
495,622	62030,24
495,825	62632,35
496,029	62214,56
496,232	62701,98
496,436	61772,2
496,639	61942,18
496,843	60860,85
497,046	61071,79
497,249	60697,02
497,453	60094,91
497,656	60379,58
497,859	60244,41
498,063	60074,43
498,266	60643,77
498,469	59812,29
498,673	59539,91
498,876	59095,5
499,079	59296,2
499,282	58147,29
499,485	58915,28
499,689	57444,84
499,892	57944,55
500,095	57448,94
500,298	57586,15
500,501	56410,62
500,705	57479,66
500,908	56973,81
501,111	57248,24
501,314	57582,05
501,517	57463,27
501,72	57412,07
501,923	56992,24
502,126	57045,49
502,329	57008,62
502,532	56351,23
502,735	56463,86
502,938	56457,72
503,141	56455,67
503,344	57076,21
503,547	56922,61
503,75	57160,17
503,953	57543,14
504,156	57821,67
504,359	57965,02
504,562	58044,9
504,765	58487,26
504,968	58556,89
505,17	58155,49
505,373	57659,88
505,576	58077,66
505,779	57694,69
505,982	57061,87
506,185	57571,81
506,387	57194,99
506,59	56171
506,793	56654,32
506,996	56097,28
507,198	57258,48
507,401	56822,26
507,604	57291,24
507,807	57405,93
508,009	57639,4
508,212	57014,77
508,415	57741,8
508,617	56873,46
508,82	56766,96
509,022	56279,55
509,225	57391,59
509,428	57035,25
509,63	57321,96
509,833	57027,06
510,035	57455,08
510,238	57037,29
510,44	57428,46
510,643	57614,82
510,845	57385,45
511,048	56881,65
511,25	56601,08
511,453	56050,17
511,655	56932,85
511,858	56003,07
512,06	56105,47
512,262	55587,33
512,465	54862,35
512,667	55386,63
512,87	55540,23
513,072	55153,16
513,274	54985,23
513,477	55640,58
513,679	55237,13
513,881	55237,13
514,084	55257,61
514,286	55261,71
514,488	55130,64
514,69	55282,19
514,893	54256,15
515,095	53332,52
515,297	52531,76
515,499	51077,71
515,701	50731,6
515,904	50987,6
516,106	50578
516,308	50287,19
516,51	51173,96
516,712	50659,92
516,914	50868,81
517,116	51221,06
517,318	50432,6
517,52	50481,75
517,722	51022,41
517,925	51622,47
518,127	52134,46
518,329	52369,97
518,531	52333,11
518,733	53416,49
518,935	53928,48
519,136	53172,78
519,338	53494,31
519,54	54235,67
519,742	54184,47
519,944	54430,23
520,146	54737,43
520,348	54870,54
520,55	54862,35
520,752	55087,63
520,954	54936,08
521,155	54276,63
521,357	54549,01
521,559	53948,96
521,761	54649,36
521,963	53692,96
522,164	54153,75
522,366	54252,06
522,568	55439,88
522,77	55075,34
522,971	55890,43
523,173	55415,3
523,375	55538,18
523,576	55239,18
523,778	54899,22
523,98	54942,22
524,181	55253,51
524,383	54659,6
524,584	54809,1
524,786	53703,2
524,988	52789,81
525,189	52199,99
525,391	51868,22
525,592	51133
525,794	50739,79
525,995	50235,99
526,197	50627,15
526,398	50975,31
526,6	51395,14
526,801	51280,45
527,003	51702,34
527,204	51757,63
527,406	52118,07
527,607	52081,21
527,808	52630,07
528,01	51929,66
528,211	52218,42
528,412	52806,19
528,614	52654,64
528,815	52208,18
529,016	52490,8
529,218	51792,45
529,419	52140,6
529,62	52308,54
529,822	52167,23
530,023	52251,19
530,224	52222,52
530,425	51849,79
530,626	51415,62
530,828	50393,68
531,029	50610,77
531,23	49582,69
531,431	49080,94
531,632	49269,35
531,833	48663,15
532,035	48355,96
532,236	48845,42
532,437	49111,66
532,638	48464,5
532,839	48411,25
533,04	48992,87
533,241	48032,38
533,442	48900,72
533,643	48251,51
533,844	48321,14
534,045	49097,32
534,246	48421,49
534,447	49119,85
534,648	49013,35
534,849	48437,87
535,05	48231,03
535,251	48061,05
535,451	48052,86
535,652	47743,61
535,853	46838,41
536,054	47460,99
536,255	47544,96
536,456	46539,41
536,657	47493,76
536,857	47075,97
537,058	46924,43
537,259	47088,26
537,46	46463,63
537,66	46404,24
537,861	46138,01
538,062	45648,54
538,263	45841,05
538,463	45048,49
538,664	45214,37
538,865	44741,29
539,065	44657,32
539,266	43707,07
539,466	43883,19
539,667	43289,28
539,868	43930,29
540,068	43522,75
540,269	43426,49
540,469	43684,54
540,67	43285,18
540,87	43987,64
541,071	44090,04
541,271	43606,72
541,472	43012,8
541,672	43100,87
541,873	42822,34
542,073	42468,05
542,274	43006,66
542,474	43207,36
542,675	42744,52
542,875	43344,58
543,075	42842,82
543,276	42656,46
543,476	43360,96
543,676	42539,72
543,877	43000,52
544,077	42654,41
544,277	42156,75
544,478	42240,72
544,678	42521,29
544,878	42031,83
545,078	42128,08
545,279	42267,34
545,479	41988,82
545,679	41435,87
545,879	41595,61
546,079	41503,45
546,28	41444,06
546,48	41069,28
546,68	40968,93
546,88	40954,6
547,08	40958,69
547,28	40690,41
547,48	40719,08
547,68	40723,18
547,88	40452,84
548,081	40571,63
548,281	41198,3
548,481	40360,69
548,681	41028,32
548,881	40354,54
549,081	40805,09
549,28	40334,06
549,48	40178,42
549,68	40219,38
549,88	40530,67
550,08	40006,39
550,28	40397,55
550,48	39860,98
550,68	40233,71
550,88	39815,93
551,08	39582,46
551,279	39647,99
551,479	39152,38
551,679	39379,71
551,879	39193,34
552,079	39262,97
552,278	38953,73
552,478	39017,22
552,678	39168,77
552,878	39289,6
553,077	39277,31
553,277	38816,52
553,477	39174,91
553,676	38681,35
553,876	39066,37
554,076	38333,2
554,275	38869,76
554,475	38417,16
554,674	38347,53
554,874	38757,13
555,074	38337,29
555,273	37999,38
555,473	38169,36
555,672	37382,94
555,872	37401,37
556,071	37194,53
556,271	37581,59
556,47	37059,36
556,67	36444,97
556,869	36772,64
557,068	36844,32
557,268	36651,81
557,467	36354,86
557,667	36057,9
557,866	35879,73
558,065	35439,42
558,265	35234,62
558,464	34911,04
558,663	35404,6
558,863	34720,58
559,062	35420,98
559,261	35244,86
559,461	35681,08
559,66	35035,97
559,859	35287,87
560,058	35244,86
560,258	35435,32
560,457	34997,06
560,656	34857,79
560,855	34536,26
561,054	34822,98
561,253	34401,1
561,453	35115,84
561,652	34382,66
561,851	34782,02
562,05	34540,36
562,249	34591,56
562,448	34702,15
562,647	34378,57
562,846	33839,95
563,045	34259,79
563,244	33842
563,443	34388,81
563,642	33313,62
563,841	33901,39
564,04	33330,01
564,239	34112,33
564,438	33198,94
564,637	33250,14
564,836	33051,48
565,035	32543,59
565,234	32879,46
565,432	32471,91
565,631	32600,93
565,83	33020,77
566,029	32686,95
566,228	32826,21
566,427	32539,49
566,625	32236,39
566,824	31933,29
567,023	32346,98
567,222	32191,34
567,42	31759,22
567,619	31878
567,818	31677,3
568,016	31656,82
568,215	31765,36
568,414	31353,72
568,612	31824,75
568,811	31226,74
569,01	31560,56
569,208	30688,13
569,407	31169,4
569,605	30225,29
569,804	30305,16
570,002	30219,14
570,201	30374,79
570,4	30198,66
570,598	29827,98
570,797	30122,89
570,995	30202,76
571,193	30276,49
571,392	30722,94
571,59	29969,29
571,789	30190,47
571,987	30290,82
572,186	30110,6
572,384	30147,47
572,582	29870,99
572,781	30055,31
572,979	29846,41
573,177	30126,99
573,376	29789,07
573,574	29539,22
573,772	30071,69
573,971	29287,32
574,169	29199,26
574,367	28709,79
574,565	29334,42
574,763	28863,39
574,962	28644,26
575,16	28722,08
575,358	28816,29
575,556	28527,52
575,754	29158,3
575,952	28070,83
576,151	28615,58
576,349	28357,54
576,547	28451,75
576,745	28330,92
576,943	28296,1
577,141	28277,67
577,339	28210,09
577,537	27839,4
577,735	27851,69
577,933	27632,56
578,131	27929,52
578,329	27665,33
578,527	28025,77
578,725	28015,53
578,923	27990,95
579,121	27882,41
579,319	28203,94
579,516	28486,56
579,714	28453,8
579,912	28242,85
580,11	28289,96
580,308	28476,32
580,506	28490,66
580,704	28025,77
580,901	28801,95
581,099	29107,1
581,297	28425,12
581,495	28826,53
581,692	28773,28
581,89	28943,26
582,088	29240,22
582,285	28435,36
582,483	29135,77
582,681	28787,61
582,878	28670,88
583,076	28687,26
583,274	28955,55
583,471	28322,73
583,669	28933,02
583,866	28527,52
584,064	28740,51
584,262	28046,25
584,459	28316,58
584,657	27810,73
584,854	28216,23
585,052	27732,91
585,249	27763,63
585,447	27698,09
585,644	27517,87
585,841	28253,09
586,039	28238,76
586,236	27909,04
586,434	27730,86
586,631	27747,25
586,828	27782,06
587,026	27648,94
587,223	27478,96
587,42	27108,28
587,618	26733,5
587,815	26143,69
588,012	26387,39
588,21	25295,83
588,407	25500,62
588,604	24652,77
588,801	24933,34
588,999	25113,56
589,196	25279,44
589,393	25476,05
589,59	25555,92
589,787	25273,3
589,984	25537,49
590,182	25576,4
590,379	25764,81
590,576	25510,86
590,773	25689,04
590,97	25533,39
591,167	25517,01
591,364	25314,26
591,561	25703,37
591,758	25347,03
591,955	25596,88
592,152	25615,31
592,349	25218
592,546	25525,2
592,743	25510,86
592,94	25162,71
593,137	25148,37
593,334	25443,28
593,531	24826,84
593,727	24890,33
593,924	25256,92
594,121	24640,48
594,318	24941,53
594,515	24296,42
594,712	24753,12
594,908	24802,27
595,105	25043,93
595,302	24628,19
595,499	24857,56
595,696	24884,19
595,892	24392,67
596,089	24542,17
596,286	24869,85
596,482	24382,43
596,679	24407,01
596,876	24116,2
597,072	24407,01
597,269	24073,19
597,466	23677,93
597,662	23802,86
597,859	23823,34
598,055	23725,04
598,252	23624,68
598,448	23823,34
598,645	23569,39
598,841	23473,14
599,038	23669,74
599,234	23614,44
599,431	23331,83
599,627	23131,12
599,824	23141,36
600,02	23088,12
600,217	23157,75
600,413	22778,87
600,609	22971,38
600,806	22854,65
601,002	23100,4
601,198	22215,68
601,395	22699
601,591	22707,19
601,787	22668,28
601,984	22602,75
602,18	23081,97
602,376	22840,31
602,572	22678,52
602,769	22916,09
602,965	22772,73
603,161	23041,01
603,357	22776,83
603,553	22879,22
603,75	22854,65
603,946	22600,7
604,142	22955
604,338	22656
604,534	22717,43
604,73	22463,49
604,926	22514,69
605,122	22565,88
605,318	22254,59
605,514	22344,7
605,71	22631,42
605,906	22727,67
606,102	22496,25
606,298	22680,57
606,494	22946,81
606,69	22569,98
606,886	22477,82
607,082	22440,96
607,278	22537,21
607,474	22146,05
607,67	22395,9
607,866	22320,13
608,062	22676,48
608,257	22348,8
608,453	22281,22
608,649	22363,14
608,845	22289,41
609,041	22443,01
609,236	22572,03
609,432	21974,02
609,628	22244,35
609,824	22340,61
610,019	22158,34
610,215	22268,93
610,411	22612,99
610,606	22232,07
610,802	22443,01
610,998	22471,68
611,193	22367,23
611,389	22379,52
611,584	22428,67
611,78	22168,58
611,976	22395,9
612,171	22389,76
612,367	22084,61
612,562	21922,82
612,758	21904,39
612,953	21990,41
613,149	22187,01
613,344	21994,5
613,539	22610,94
613,735	22473,73
613,93	22348,8
614,126	22172,67
614,321	22529,02
614,517	22508,54
614,712	22594,56
614,907	21908,49
615,103	22068,23
615,298	22119,43
615,493	22137,86
615,688	21781,51
615,884	22088,71
616,079	21580,81
616,274	22129,67
616,47	22078,47
616,665	22375,42
616,86	21947,4
617,055	22410,24
617,25	22252,55
617,445	22547,45
617,641	22318,08
617,836	22633,47
618,031	22232,07
618,226	22586,36
618,421	22211,59
618,616	22776,83
618,811	22387,71
619,006	22799,35
619,201	22105,09
619,396	22684,67
619,591	22449,15
619,786	22930,42
619,981	22338,56
620,176	22647,8
620,371	22182,91
620,566	22381,57
620,761	22287,36
620,956	22592,51
621,151	21879,82
621,346	22084,61
621,541	21785,61
621,735	22383,62
621,93	21765,13
622,125	21713,93
622,32	21201,94
622,515	21638,16
622,709	21365,78
622,904	21470,22
623,099	21105,68
623,294	21376,02
623,488	20980,76
623,683	21163,03
623,878	20640,79
624,072	20732,95
624,267	20483,1
624,462	20526,11
624,656	20343,84
624,851	20573,21
625,046	20085,79
625,24	20341,79
625,435	20001,83
625,629	20329,5
625,824	20163,62
626,018	20147,23
626,213	19616,81
626,407	19954,72
626,602	19756,07
626,796	19475,5
626,991	19588,14
627,185	18881,59
627,38	18730,04
627,574	18482,24
627,768	18928,69
627,963	18611,26
628,157	18658,36
628,352	18963,51
628,546	18525,24
628,74	18832,44
628,935	18314,3
629,129	18535,48
629,323	18152,51
629,517	18525,24
629,712	18420,8
629,906	18658,36
630,1	18367,55
630,294	18555,96
630,489	18275,39
630,683	18482,24
630,877	18265,15
631,071	18129,98
631,265	18549,82
631,459	18455,61
631,653	18093,12
631,848	18269,25
632,042	18236,48
632,236	18472
632,43	18547,77
632,624	18445,37
632,818	18623,55
633,012	18390,08
633,206	18441,28
633,4	18752,57
633,594	18345,02
633,788	18555,96
633,982	18383,93
634,176	18275,39
634,369	18574,39
634,563	18445,37
634,757	18373,69
634,951	18435,13
635,145	18414,65
635,339	18351,17
635,533	18287,68
635,726	18252,86
635,92	18246,72
636,114	18392,12
636,308	18170,94
636,501	18328,64
636,695	18646,07
636,889	18867,25
637,083	18048,07
637,276	18625,59
637,47	18156,61
637,664	18502,72
637,857	18199,62
638,051	18410,56
638,244	18342,97
638,438	18398,27
638,632	18373,69
638,825	18132,03
639,019	18029,63
639,212	17925,19
639,406	18209,86
639,599	17843,27
639,793	18023,49
639,986	17742,92
640,18	17867,84
640,373	17984,58
640,567	17550,41
640,76	17738,82
640,954	17622,09
641,147	17632,33
641,34	17603,66
641,534	17583,18
641,727	17613,9
641,92	17706,06
642,114	17402,96
642,307	17517,64
642,5	17638,47
642,694	17345,61
642,887	17542,22
643,08	17867,84
643,273	17552,46
643,467	17671,24
643,66	17103,95
643,853	17425,48
644,046	17189,97
644,239	17323,08
644,432	17165,39
644,626	17345,61
644,819	17112,14
645,012	17331,28
645,205	17173,58
645,398	16858,2
645,591	16794,71
645,784	17075,28
645,977	16819,28
646,17	16901,2
646,363	16663,64
646,556	16616,54
646,749	17144,91
646,942	16624,73
647,135	16428,12
647,328	16526,43
647,521	16485,47
647,714	16524,38
647,907	16680,02
648,099	16419,93
648,292	16454,75
648,485	16596,06
648,678	15985,76
648,871	15928,42
649,064	15985,76
649,256	16168,03
649,449	15828,07
649,642	16069,73
649,835	16217,18
650,027	16026,72
650,22	16002,15
650,413	16163,93
650,605	16192,61
650,798	16145,5
650,991	15971,43
651,183	15971,43
651,376	15848,55
651,568	16104,54
651,761	15944,8
651,954	16282,72
652,146	16043,1
652,339	16190,56
652,531	15930,47
652,724	16000,1
652,916	15645,8
653,109	15909,99
653,301	15772,77
653,494	16237,66
653,686	15641,7
653,879	15828,07
654,071	15656,04
654,263	15473,77
654,456	15613,03
654,648	15664,23
654,84	15076,46
655,033	15002,74
655,225	14652,53
655,417	14265,47
655,61	14066,81
655,802	13679,75
655,994	13474,95
656,186	13814,91
656,379	13655,17
656,571	13952,13
656,763	13884,55
656,955	14025,86
657,148	14316,67
657,34	14777,46
657,532	14288
657,724	14310,52
657,916	14728,31
658,108	14685,3
658,3	14994,54
658,492	14988,4
658,684	14498,94
658,876	14810,23
659,068	14797,94
659,26	14623,86
659,452	14955,63
659,644	15084,66
659,836	14838,9
660,028	15174,77
660,22	14689,4
660,412	14842,99
660,604	14869,62
660,796	14992,5
660,988	14961,78
661,18	15105,13
661,372	15060,08
661,563	15156,33
661,755	14861,43
661,947	15193,2
662,139	14859,38
662,331	14799,99
662,522	14789,75
662,714	14886
662,906	14607,48
663,097	14974,06
663,289	14750,84
663,481	14339,19
663,673	14687,35
663,864	14281,85
664,056	14417,02
664,247	14789,75
664,439	14484,6
664,631	14394,49
664,822	14552,18
665,014	14718,07
665,205	14421,11
665,397	14503,03
665,588	14425,21
665,78	14488,7
665,971	14412,92
666,163	14472,31
666,354	14509,18
666,546	14298,24
666,737	14367,87
666,929	14146,69
667,12	14261,37
667,311	14230,65
667,503	14003,33
667,694	14195,84
667,885	14009,47
668,077	14388,35
668,268	14351,48
668,459	14023,81
668,651	14328,95
668,842	13980,8
669,033	13823,11
669,224	13943,94
669,416	14193,79
669,607	13816,96
669,798	13945,98
669,989	14113,92
670,18	13882,5
670,371	13767,81
670,563	13976,7
670,754	13821,06
670,945	13569,16
671,136	13485,19
671,327	13485,19
671,518	13571,21
671,709	13548,68
671,9	13835,39
672,091	13696,13
672,282	13601,93
672,473	13497,48
672,664	13845,63
672,855	13563,01
673,046	13311,11
673,237	13790,34
673,428	13429,9
673,619	13337,74
673,809	13452,42
674	13347,98
674,191	13524,1
674,382	13143,18
674,573	13388,94
674,764	13384,84
674,954	13378,7
675,145	12887,18
675,336	13362,31
675,527	12995,73
675,717	13331,59
675,908	13077,65
676,099	13028,49
676,289	13001,87
676,48	13171,85
676,671	13012,11
676,861	13001,87
677,052	12620,95
677,243	12987,54
677,433	12991,63
677,624	12876,94
677,814	12942,48
678,005	12958,86
678,195	12762,26
678,386	13048,97
678,576	12717,2
678,767	12792,98
678,957	12807,31
679,148	12856,47
679,338	12889,23
679,529	12782,74
679,719	12575,89
679,909	12819,6
680,1	12666
680,29	12788,88
680,481	12772,5
680,671	12557,46
680,861	12706,96
681,052	12428,44
681,242	12475,54
681,432	12653,72
681,622	12520,6
681,813	12217,5
682,003	12326,04
682,193	12121,24
682,383	12397,72
682,573	12299,42
682,764	12250,27
682,954	12448,92
683,144	12426,39
683,334	12123,29
683,524	12184,73
683,714	12270,75
683,904	12162,2
684,094	12033,18
684,284	11830,43
684,474	12242,07
684,664	12039,33
684,854	12307,61
685,044	11822,24
685,234	12039,33
685,424	11865,25
685,614	11752,61
685,804	11525,29
685,994	11060,4
686,184	10949,81
686,374	10351,8
686,564	9503,94
686,753	8926,41
686,943	8209,62
687,133	8146,14
687,323	8258,78
687,513	8373,46
687,702	8490,2
687,892	8436,95
688,082	8764,62
688,272	8922,32
688,461	8492,24
688,651	8535,25
688,841	8301,78
689,03	8377,56
689,22	8461,52
689,41	8533,2
689,599	8664,27
689,789	8815,82
689,979	8694,99
690,168	8961,23
690,358	8817,87
690,547	9315,53
690,737	9065,68
690,926	9481,41
691,116	9362,63
691,305	9848
691,495	9671,87
691,684	9678,02
691,874	9872,57
692,063	9962,69
692,252	9891,01
692,442	10321,08
692,631	10126,52
692,82	10177,72
693,01	9983,17
693,199	10259,64
693,388	10020,03
693,578	10312,89
693,767	10108,09
693,956	10636,47
694,146	10151,1
694,335	10206,39
694,524	10364,09
694,713	10425,53
694,902	10448,05
695,092	10544,31
695,281	10329,27
695,47	10282,17
695,659	10384,57
695,848	10441,91
696,037	10370,23
696,226	10710,19
696,415	10599,6
696,604	10620,08
696,793	10517,68
696,982	10507,44
697,171	10572,98
697,36	10624,18
697,549	10460,34
697,738	10306,74
697,927	10341,56
698,116	10546,36
698,305	10359,99
698,494	10263,74
698,683	10497,21
698,872	10534,07
699,061	10310,84
699,25	10265,78
699,438	10151,1
699,627	10228,92
699,816	10198,2
700,005	10187,96
700,193	10159,29
700,382	10247,35
700,571	10118,33
700,76	9960,64
700,948	9995,45
701,137	9966,78
701,326	9915,58
701,514	10036,41
701,703	9714,88
701,892	9989,31
702,08	9948,35
702,269	9825,47
702,457	9776,32
702,646	9952,45
702,834	9864,38
703,023	9893,05
703,212	9972,93
703,4	9979,07
703,589	9835,71
703,777	10106,04
703,965	9891,01
704,154	9897,15
704,342	9993,4
704,531	9886,91
704,719	9800,9
704,907	10065,08
705,096	9688,26
705,284	9907,39
705,472	9923,77
705,661	9684,16
705,849	9956,54
706,037	9915,58
706,226	9755,84
706,414	9782,46
706,602	9710,79
706,79	9727,17
706,979	9923,77
707,167	9802,94
707,355	9784,51
707,543	9686,21
707,731	9852,09
707,919	9823,42
708,107	9585,86
708,296	9489,6
708,484	9454,79
708,672	9555,14
708,86	9538,76
709,048	9512,13
709,236	9604,29
709,424	9802,94
709,612	9551,04
709,8	9604,29
709,988	9733,31
710,176	9465,03
710,364	9579,72
710,551	9436,36
710,739	9505,99
710,927	9403,59
711,115	9348,29
711,303	9327,82
711,491	9211,08
711,679	9274,57
711,866	9358,53
712,054	9415,88
712,242	9225,42
712,43	9370,82
712,617	9233,61
712,805	9020,62
712,993	9270,47
713,181	9116,87
713,368	9037
713,556	8998,09
713,744	9114,83
713,931	9108,68
714,119	9004,24
714,306	8948,94
714,494	9092,3
714,682	8811,73
714,869	8885,45
715,057	8985,8
715,244	8875,21
715,432	9055,44
715,619	8625,36
715,807	8836,3
715,994	8858,83
716,182	8580,31
716,369	8611,03
716,556	8414,42
716,744	8115,42
716,931	8004,83
717,119	7924,96
717,306	7922,91
717,493	7642,34
717,681	7800,03
717,868	7492,84
718,055	7390,44
718,242	7206,12
718,43	7015,66
718,617	7159,02
718,804	6802,67
718,991	6999,27
719,179	6862,06
719,366	6884,59
719,553	6851,82
719,74	6700,27
719,927	6866,16
720,114	6700,27
720,301	6704,37
720,488	6720,75
720,676	6841,58
720,863	6999,27
721,05	7070,95
721,237	7275,75
721,424	7400,68
721,611	7396,58
721,798	7425,25
721,985	7331,05
722,172	7398,63
722,358	7554,27
722,545	7458,02
722,732	7345,38
722,919	7435,49
723,106	7156,97
723,293	7292,13
723,48	7103,72
723,667	7032,04
723,853	6941,93
724,04	6919,4
724,227	6937,84
724,414	6900,97
724,6	6997,23
724,787	7050,47
724,974	7036,14
725,161	6835,44
725,347	6765,81
725,534	6890,73
725,72	6814,96
725,907	6780,14
726,094	6978,79
726,28	6835,44
726,467	6882,54
726,653	6923,5
726,84	6890,73
727,027	6843,63
727,213	6716,65
727,4	6669,55
727,586	6606,06
727,773	6593,78
727,959	6495,47
728,145	6774
728,332	6604,02
728,518	6706,41
728,705	6728,94
728,891	6423,8
729,077	6505,71
729,264	6454,51
729,45	6464,75
729,636	6683,89
729,823	6716,65
730,009	6640,88
730,195	6604,02
730,382	6722,8
730,568	6470,9
730,754	6653,17
730,94	6464,75
731,126	6735,09
731,313	6702,32
731,499	6571,25
731,685	6673,65
731,871	6694,13
732,057	6671,6
732,243	6972,65
732,429	6714,61
732,615	6862,06
732,801	6724,85
732,987	6776,05
733,173	6774
733,359	7070,95
733,545	6763,76
733,731	6894,83
733,917	6876,4
734,103	7056,62
734,289	7001,32
734,475	6677,74
734,661	7062,76
734,847	6919,4
735,033	6823,15
735,219	7017,71
735,404	6821,1
735,59	6751,47
735,776	6812,91
735,962	6819,05
736,148	6765,81
736,333	6814,96
736,519	6706,41
736,705	6776,05
736,89	6849,77
737,076	6792,43
737,262	6585,58
737,447	6706,41
737,633	6640,88
737,819	6716,65
738,004	6804,72
738,19	6669,55
738,375	6649,07
738,561	6814,96
738,747	6661,36
738,932	6554,87
739,118	6487,28
739,303	6614,26
739,489	6558,96
739,674	6604,02
739,859	6434,04
740,045	6638,83
740,23	6483,19
740,416	6550,77
740,601	6618,35
740,786	6569,2
740,972	6448,37
741,157	6546,67
741,342	6339,83
741,528	6479,09
741,713	6415,6
741,898	6319,35
742,084	6493,43
742,269	6454,51
742,454	6300,92
742,639	6606,06
742,824	6259,96
743,01	6458,61
743,195	6466,8
743,38	6505,71
743,565	6386,93
743,75	6382,84
743,935	6184,18
744,12	6298,87
744,305	6319,35
744,49	6464,75
744,675	6397,17
744,86	6233,33
745,045	6227,19
745,23	6274,29
745,415	6388,98
745,6	6493,43
745,785	6253,81
745,97	6311,16
746,155	6157,56
746,34	6337,78
746,525	6028,54
746,71	6345,97
746,895	6114,55
747,079	6214,9
747,264	6038,78
747,449	6102,26
747,634	6036,73
747,819	6139,13
748,003	6079,74
748,188	5989,63
748,373	6262,01
748,557	6171,9
748,742	6055,16
748,927	6008,06
749,111	5852,41
749,296	5862,65
749,481	5844,22
749,665	5950,71
749,85	5752,06
750,034	5981,43
750,219	5842,17
750,404	5924,09
750,588	5655,81
750,773	5702,91
750,957	5756,16
751,141	5754,11
751,326	5774,59
751,51	5664
751,695	5692,67
751,879	5797,12
752,064	5891,32
752,248	5754,11
752,432	5639,42
752,617	5735,68
752,801	5520,64
752,985	5612,8
753,17	5465,35
753,354	5672,19
753,538	5713,15
753,722	5610,75
753,907	5620,99
754,091	5512,45
754,275	5502,21
754,459	5698,81
754,643	5573,89
754,828	5639,42
755,012	5317,89
755,196	5537,02
755,38	5541,12
755,564	5299,46
755,748	5371,14
755,932	5477,63
756,116	5369,09
756,3	5457,15
756,484	5192,97
756,668	5330,18
756,852	5514,5
757,036	5264,64
757,22	5123,34
757,404	5156,1
757,588	5319,94
757,772	5301,51
757,956	5276,93
758,14	5231,88
758,323	5070,09
758,507	5328,13
758,691	5082,38
758,875	5033,22
759,059	4871,43
759,242	4625,68
759,426	4255
759,61	3845,4
759,794	3368,23
759,977	2811,18
760,161	2526,51
760,345	2022,71
760,528	1795,39
760,712	1369,41
760,895	1262,91
761,079	1242,43
761,263	1051,97
761,446	1156,42
761,63	1355,07
761,813	1510,72
761,997	1500,48
762,18	1592,64
762,364	1643,84
762,547	1475,9
762,731	1271,11
762,914	1258,82
763,098	1187,14
763,281	1140,04
763,464	1183,04
763,648	1127,75
763,831	1230,15
764,015	1273,15
764,198	1381,7
764,381	1492,29
764,564	1453,38
764,748	1576,25
764,931	1764,67
765,114	1912,12
765,297	2010,42
765,481	2086,2
765,664	2219,32
765,847	2321,71
766,03	2585,9
766,213	2786,6
766,397	2927,91
766,58	2909,48
766,763	3261,73
766,946	3247,4
767,129	3540,26
767,312	3745,05
767,495	3814,68
767,678	3800,35
767,861	4082,97
768,044	4125,97
768,227	4232,47
768,41	4367,63
768,593	4410,64
768,776	4605,2
768,959	4617,49
769,142	4873,48
769,324	4662,54
769,507	4816,14
769,69	4728,08
769,873	4889,87
770,056	4988,17
770,239	4969,74
770,421	5076,23
770,604	5098,76
770,787	5047,56
770,97	5188,87
771,152	5096,71
771,335	5137,67
771,518	5233,93
771,7	5293,32
771,883	5188,87
772,066	5371,14
772,248	5225,73
772,431	5459,2
772,613	5448,96
772,796	5383,43
772,978	5471,49
773,161	5248,26
773,343	5242,12
773,526	5315,84
773,708	5459,2
773,891	5358,85
774,073	5465,35
774,256	5354,76
774,438	5459,2
774,621	5283,08
774,803	5348,61
774,985	5397,76
775,168	5238,02
775,35	5342,47
775,532	5324,04
775,715	5440,77
775,897	5307,65
776,079	5287,17
776,261	5367,04
776,444	5377,28
776,626	5475,59
776,808	5283,08
776,99	5475,59
777,173	5412,1
777,355	5184,77
777,537	5446,91
777,719	5281,03
777,901	5201,16
778,083	5258,5
778,265	5270,79
778,447	5092,62
778,629	5147,91
778,811	5041,42
778,993	5113,1
779,175	5221,64
779,357	5309,7
779,539	5174,53
779,721	5262,6
779,903	5168,39
780,085	5188,87
780,267	5152,01
780,449	5111,05
780,631	5078,28
780,812	5121,29
780,994	5137,67
781,176	5010,7
781,358	5057,8
781,54	5102,86
781,721	4986,12
781,903	5025,03
782,085	4865,29
782,267	4947,21
782,448	4936,97
782,63	4760,84
782,812	4977,93
782,993	5047,56
783,175	4898,06
783,357	4715,79
783,538	4887,82
783,72	4723,98
783,901	4748,56
784,083	4771,08
784,264	4607,25
784,446	4652,3
784,627	4635,92
784,809	4701,45
784,99	4668,69
785,172	4656,4
785,353	4656,4
785,535	4574,48
785,716	4683,02
785,897	4615,44
786,079	4519,18
786,26	4435,22
786,441	4599,06
786,623	4453,65
786,804	4476,18
786,985	4412,69
787,167	4500,75
787,348	4461,84
787,529	4457,75
787,71	4517,14
787,891	4353,3
788,073	4312,34
788,254	4291,86
788,435	4381,97
788,616	4306,2
788,797	4179,22
788,978	4316,44
789,159	4295,96
789,34	4140,31
789,522	4199,7
789,703	4220,18
789,884	4185,37
790,065	4105,49
790,246	3964,18
790,427	3935,51
790,607	4332,82
790,788	4005,14
790,969	4039,96
791,15	4031,77
791,331	4066,58
791,512	4005,14
791,693	3884,31
791,874	3917,08
792,054	3951,9
792,235	3812,64
792,416	3843,35
792,597	3792,16
792,778	4060,44
792,958	3859,74
793,139	3714,33
793,32	3927,32
793,5	3900,7
793,681	3757,34
793,862	3882,27
794,042	3663,13
794,223	3763,48
794,404	3718,43
794,584	3702,04
794,765	3640,61
794,945	3732,76
795,126	3646,75
795,306	3745,05
795,487	3695,9
795,667	3603,74
795,848	3519,78
796,028	3687,71
796,209	3632,41
796,389	3589,41
796,57	3593,5
796,75	3667,23
796,93	3544,35
797,111	3564,83
797,291	3628,32
797,471	3618,08
797,652	3638,56
797,832	3495,2
798,012	3618,08
798,192	3435,81
798,373	3656,99
798,553	3525,92
798,733	3411,23
798,913	3521,82
799,093	3343,65
799,274	3521,82
799,454	3632,41
799,634	3345,7
799,814	3388,71
799,994	3507,49
800,174	3403,04
800,354	3444
800,534	3306,79
800,714	3407,14
800,894	3253,54
801,074	3366,18
801,254	3413,28
801,434	3380,51
801,614	3247,4
801,794	3226,92
801,974	3953,95
802,154	3220,77
802,334	3284,26
802,514	3271,97
802,693	3202,34
802,873	3142,95
803,053	3204,39
803,233	3192,1
803,413	3106,09
803,592	3204,39
803,772	3140,9
803,952	3134,76
804,131	3196,2
804,311	3378,47
804,491	3241,25
804,67	3151,14
804,85	2899,24
805,03	3120,42
805,209	3259,68
805,389	3054,89
805,568	3056,93
805,748	2997,54
805,928	2993,45
806,107	3091,75
806,287	2997,54
806,466	3077,41
806,646	2987,3
806,825	3091,75
807,004	3099,94
807,184	2917,67
807,363	3114,28
807,543	3007,78
807,722	2956,58
807,901	3028,26
808,081	3020,07
808,26	2925,86
808,439	2925,86
808,619	3020,07
808,798	2929,96
808,977	2911,53
809,156	3022,12
809,336	2909,48
809,515	2856,23
809,694	2864,43
809,873	2819,37
810,052	2864,43
810,231	2860,33
810,411	2843,95
810,59	2829,61
810,769	2733,36
810,948	2827,56
811,127	2766,12
811,306	2858,28
811,485	2649,39
811,664	2856,23
811,843	2772,27
812,022	2698,54
812,201	2741,55
812,38	2710,83
812,559	2714,92
812,737	2645,29
812,916	2555,18
813,095	2522,41
813,274	2594,09
813,453	2524,46
813,632	2596,14
813,811	2514,22
813,989	2510,13
814,168	2487,6
814,347	2360,63
814,526	2546,99
814,704	2413,87
814,883	2428,21
815,062	2317,62
815,24	2338,1
815,419	2317,62
815,598	2301,23
815,776	2278,71
815,955	2198,84
816,133	2219,32
816,312	2186,55
816,49	2254,13
816,669	2090,29
816,847	2108,73
817,026	2004,28
817,204	1948,98
817,383	2075,96
817,561	1942,84
817,74	2102,58
817,918	2035
818,097	2057,53
818,275	1989,94
818,453	1971,51
818,632	1981,75
818,81	2045,24
818,988	2026,81
819,167	1991,99
819,345	2008,37
819,523	1983,8
819,701	1965,37
819,879	2026,81
820,058	2047,29
820,236	2061,62
820,414	2067,77
820,592	1903,93
820,77	1957,18
820,948	2032,95
821,127	2059,57
821,305	2129,2
821,483	2159,92
821,661	2168,12
821,839	2172,21
822,017	2106,68
822,195	2172,21
822,373	2123,06
822,551	2071,86
822,729	2008,37
822,907	1920,31
823,085	1834,3
823,262	1760,57
823,44	1779
823,618	1709,37
823,796	1709,37
823,974	1762,62
824,152	1697,08
824,329	1865,02
824,507	1793,34
824,685	1832,25
824,863	1885,5
825,04	1854,78
825,218	2016,57
825,396	1944,89
825,574	2016,57
825,751	2049,33
825,929	2049,33
826,107	1955,13
826,284	1996,09
826,462	1989,94
826,639	2010,42
826,817	1944,89
826,994	1924,41
827,172	1932,6
827,349	1969,46
827,527	1971,51
827,704	2002,23
827,882	1938,74
828,059	1869,11
828,237	1830,2
828,414	1858,87
828,591	1723,71
828,769	1729,85
828,946	1701,18
829,124	1791,29
829,301	1789,24
829,478	1740,09
829,655	1711,42
829,833	1791,29
830,01	1754,43
830,187	1852,73
830,364	1748,28
830,542	1797,43
830,719	1842,49
830,896	1852,73
831,073	1779
831,25	1869,11
831,427	1822,01
831,604	1705,28
831,782	1672,51
831,959	1738,04
832,136	1715,52
832,313	1740,09
832,49	1705,28
832,667	1824,06
832,844	1690,94
833,021	1645,88
833,198	1766,71
833,374	1668,41
833,551	1779
833,728	1680,7
833,905	1688,89
834,082	1590,59
834,259	1725,76
834,436	1686,84
834,612	1647,93
834,789	1672,51
834,966	1654,08
835,143	1676,6
835,319	1606,97
835,496	1735,99
835,673	1666,36
835,85	1740,09
836,026	1756,47
836,203	1690,94
836,38	1764,67
836,556	1635,64
836,733	1707,32
836,909	1729,85
837,086	1688,89
837,262	1633,6
837,439	1654,08
837,616	1609,02
837,792	1676,6
837,968	1703,23
838,145	1641,79
838,321	1633,6
838,498	1555,77
838,674	1647,93
838,851	1652,03
839,027	1699,13
839,203	1570,11
839,38	1658,17
839,556	1465,66
839,732	1656,12
839,909	1672,51
840,085	1553,73
840,261	1656,12
840,437	1557,82
840,614	1635,64
840,79	1682,75
840,966	1545,53
841,142	1527,1
841,318	1641,79
841,494	1733,95
841,671	1586,49
841,847	1518,91
842,023	1490,24
842,199	1510,72
842,375	1572,16
842,551	1520,96
842,727	1533,25
842,903	1633,6
843,079	1520,96
843,255	1516,86
843,431	1457,47
843,607	1555,77
843,783	1520,96
843,959	1465,66
844,134	1432,9
844,31	1500,48
844,486	1473,85
844,662	1549,63
844,838	1504,57
845,013	1518,91
845,189	1445,18
845,365	1410,37
845,541	1504,57
845,716	1475,9
845,892	1445,18
846,068	1498,43
846,244	1443,14
846,419	1492,29
846,595	1414,46
846,77	1504,57
846,946	1484,09
847,122	1461,57
847,297	1334,59
847,473	1516,86
847,648	1381,7
847,824	1428,8
847,999	1412,42
848,175	1344,83
848,35	1398,08
848,526	1510,72
848,701	1428,8
848,876	1457,47
849,052	1332,55
849,227	1525,05
849,403	1361,22
849,578	1273,15
849,753	1381,7
849,929	1334,59
850,104	1221,95
850,279	1224
850,454	1258,82
850,63	1217,86
850,805	1244,48
850,98	1172,8
851,155	1299,78
851,33	1369,41
851,505	1201,47
851,681	1297,73
851,856	1238,34
852,031	1277,25
852,206	1226,05
852,381	1219,91
852,556	1142,08
852,731	1240,39
852,906	1338,69
853,081	1195,33
853,256	1305,92
853,431	1191,24
853,606	1297,73
853,781	1205,57
853,956	1191,24
854,131	1191,24
854,305	1084,74
854,48	1084,74
854,655	1019,21
854,83	974,15
855,005	986,44
855,18	922,95
855,354	1029,45
855,529	1045,83
855,704	970,05
855,879	1045,83
856,053	1064,26
856,228	1166,66
856,403	1137,99
856,577	1051,97
856,752	1000,77
856,926	1215,81
857,101	1115,46
857,276	1041,73
857,45	1121,6
857,625	1140,04
857,799	1174,85
857,974	1101,12
858,148	1058,12
858,323	1064,26
858,497	1209,67
858,672	1092,93
858,846	1074,5
859,02	1072,45
859,195	1086,79
859,369	1074,5
859,543	1148,23
859,718	1097,03
859,892	1140,04
860,066	990,53
860,241	1078,6
860,415	1072,45
860,589	949,57
860,763	1068,36
860,938	1013,06
861,112	1023,3
861,286	1035,59
861,46	1041,73
861,634	1043,78
861,808	1088,84
861,982	1011,01
862,157	945,48
862,331	970,05
862,505	955,72
862,679	1041,73
862,853	1086,79
863,027	949,57
863,201	1041,73
863,375	1037,64
863,549	1011,01
863,722	1037,64
863,896	976,2
864,07	1041,73
864,244	922,95
864,418	996,68
864,592	1011,01
864,766	945,48
864,939	1025,35
865,113	963,91
865,287	937,29
865,461	1002,82
865,634	945,48
865,808	927,05
865,982	904,52
866,156	879,94
866,329	812,36
866,503	830,79
866,676	832,84
866,85	847,18
867,024	771,4
867,197	871,75
867,371	830,79
867,544	824,65
867,718	863,56
867,891	884,04
868,065	806,22
868,238	793,93
868,412	945,48
868,585	888,14
868,759	836,94
868,932	865,61
869,105	820,55
869,279	822,6
869,452	812,36
869,625	779,59
869,799	859,46
869,972	890,18
870,145	855,37
870,319	828,74
870,492	863,56
870,665	806,22
870,838	820,55
871,011	755,02
871,185	689,48
871,358	771,4
871,531	757,07
871,704	785,74
871,877	859,46
872,05	773,45
872,223	757,07
872,396	822,6
872,569	814,41
872,742	808,26
872,915	793,93
873,088	748,87
873,261	744,78
873,434	834,89
873,607	765,26
873,78	802,12
873,953	820,55
874,126	795,98
874,299	795,98
874,471	869,7
874,644	779,59
874,817	724,3
874,99	843,08
875,163	748,87
875,335	732,49
875,508	709,96
875,681	771,4
875,853	818,5
876,026	722,25
876,199	804,17
876,371	744,78
876,544	752,97
876,717	785,74
876,889	709,96
877,062	669
877,234	626
877,407	746,83
877,579	693,58
877,752	718,15
877,924	714,06
878,097	687,43
878,269	773,45
878,442	671,05
878,614	666,96
878,786	642,38
878,959	664,91
879,131	664,91
879,303	621,9
879,476	767,31
879,648	664,91
879,82	617,8
879,993	646,48
880,165	685,39
880,337	582,99
880,509	648,52
880,681	603,47
880,854	675,15
881,026	644,43
881,198	654,67
881,37	699,72
881,542	578,89
881,714	628,04
881,886	552,27
882,058	615,76
882,23	685,39
882,402	591,18
882,574	617,8
882,746	656,72
882,918	658,76
883,09	615,76
883,262	603,47
883,434	560,46
883,606	607,56
883,778	613,71
883,95	666,96
884,122	595,28
884,293	597,32
884,465	599,37
884,637	607,56
884,809	593,23
884,98	566,6
885,152	593,23
885,324	675,15
885,496	632,14
885,667	558,41
885,839	576,84
886,011	693,58
886,182	566,6
886,354	560,46
886,525	593,23
886,697	648,52
886,869	589,13
887,04	542,03
887,212	554,32
887,383	642,38
887,555	537,93
887,726	582,99
887,897	511,31
888,069	494,93
888,24	546,13
888,412	650,57
888,583	492,88
888,754	552,27
888,926	490,83
889,097	456,01
889,268	431,44
889,44	681,29
889,611	486,73
889,782	462,16
889,953	466,25
890,125	490,83
890,296	517,45
890,467	456,01
890,638	494,93
890,809	546,13
890,98	427,34
891,151	613,71
891,323	525,65
891,494	523,6
891,665	552,27
891,836	496,97
892,007	484,69
892,178	494,93
892,349	486,73
892,52	509,26
892,691	447,82
892,862	429,39
893,032	445,77
893,203	484,69
893,374	445,77
893,545	525,65
893,716	486,73
893,887	552,27
894,057	421,2
894,228	462,16
894,399	396,62
894,57	509,26
894,74	482,64
894,911	496,97
895,082	380,24
895,253	355,66
895,423	392,53
895,594	408,91
895,764	392,53
895,935	415,06
896,106	376,14
896,276	372,05
896,447	433,49
896,617	329,04
896,788	413,01
896,958	361,81
897,129	269,65
897,299	427,34
897,47	443,73
897,64	439,63
897,81	353,62
897,981	349,52
898,151	376,14
898,322	339,28
898,492	441,68
898,662	357,71
898,832	316,75
899,003	265,55
899,173	456,01
899,343	445,77
899,513	271,7
