Data from atmo_200_USB4F104151__3__16-41-46-045.txt Node

Date: Thu Mar 07 16:41:46 EST 2024
User: lauri
Spectrometer: USB4F10415
Trigger mode: 4
Integration Time (sec): 2,000000E-1
Scans to average: 1
Electric dark correction enabled: true
Nonlinearity correction enabled: false
Boxcar width: 0
XAxis mode: Wavelengths
Number of Pixels in Spectrum: 3648
>>>>>Begin Spectral Data<<<<<
178,204	-172,03
178,424	-172,03
178,644	-172,03
178,864	-184,32
179,084	-112,64
179,304	28,67
179,524	-45,06
179,744	-14,34
179,964	83,97
180,184	-34,82
180,404	-55,3
180,624	-14,34
180,844	43,01
181,064	2,05
181,283	47,1
181,503	-43,01
181,723	2,05
181,943	-90,11
182,163	172,03
182,383	88,06
182,602	96,25
182,822	149,5
183,042	149,5
183,262	96,25
183,482	100,35
183,701	122,88
183,921	129,02
184,141	98,3
184,361	153,6
184,58	118,78
184,8	180,22
185,02	81,92
185,239	139,26
185,459	161,79
185,679	120,83
185,898	124,93
186,118	75,77
186,338	217,08
186,557	65,53
186,777	77,82
186,997	43,01
187,216	110,59
187,436	151,55
187,655	69,63
187,875	147,45
188,095	126,97
188,314	141,31
188,534	221,18
188,753	79,87
188,973	92,16
189,192	147,45
189,412	139,26
189,631	86,01
189,851	88,06
190,07	120,83
190,29	100,35
190,509	73,73
190,729	26,62
190,948	114,69
191,168	256
191,387	124,93
191,607	147,45
191,826	172,03
192,045	110,59
192,265	118,78
192,484	86,01
192,704	108,54
192,923	112,64
193,142	212,99
193,362	53,25
193,581	135,17
193,8	92,16
194,02	110,59
194,239	137,21
194,458	83,97
194,678	81,92
194,897	73,73
195,116	120,83
195,335	108,54
195,555	36,86
195,774	71,68
195,993	114,69
196,212	81,92
196,432	129,02
196,651	75,77
196,87	129,02
197,089	137,21
197,308	100,35
197,528	176,13
197,747	-14,34
197,966	98,3
198,185	223,23
198,404	77,82
198,623	120,83
198,842	137,21
199,062	110,59
199,281	108,54
199,5	94,21
199,719	88,06
199,938	88,06
200,157	124,93
200,376	141,31
200,595	98,3
200,814	118,78
201,033	69,63
201,252	75,77
201,471	131,07
201,69	145,41
201,909	114,69
202,128	206,84
202,347	71,68
202,566	116,73
202,785	20,48
203,004	43,01
203,223	174,08
203,442	98,3
203,661	34,82
203,879	94,21
204,098	139,26
204,317	133,12
204,536	174,08
204,755	151,55
204,974	157,69
205,193	149,5
205,411	194,56
205,63	161,79
205,849	75,77
206,068	77,82
206,287	16,38
206,505	141,31
206,724	88,06
206,943	116,73
207,162	49,15
207,381	122,88
207,599	157,69
207,818	133,12
208,037	145,41
208,255	81,92
208,474	112,64
208,693	155,65
208,911	126,97
209,13	141,31
209,349	90,11
209,567	157,69
209,786	129,02
210,005	79,87
210,223	131,07
210,442	36,86
210,661	167,93
210,879	192,51
211,098	106,49
211,316	98,3
211,535	69,63
211,753	141,31
211,972	151,55
212,191	77,82
212,409	108,54
212,628	180,22
212,846	126,97
213,065	165,89
213,283	186,37
213,502	129,02
213,72	124,93
213,938	223,23
214,157	141,31
214,375	133,12
214,594	63,49
214,812	106,49
215,031	120,83
215,249	104,45
215,467	124,93
215,686	112,64
215,904	174,08
216,122	108,54
216,341	174,08
216,559	122,88
216,778	86,01
216,996	129,02
217,214	100,35
217,432	139,26
217,651	67,58
217,869	61,44
218,087	131,07
218,306	98,3
218,524	139,26
218,742	118,78
218,96	190,46
219,179	133,12
219,397	77,82
219,615	237,56
219,833	114,69
220,051	110,59
220,27	186,37
220,488	235,52
220,706	83,97
220,924	116,73
221,142	120,83
221,36	63,49
221,578	135,17
221,796	194,56
222,015	196,6
222,233	137,21
222,451	184,32
222,669	165,89
222,887	126,97
223,105	34,82
223,323	169,98
223,541	43,01
223,759	151,55
223,977	116,73
224,195	233,47
224,413	126,97
224,631	124,93
224,849	143,36
225,067	239,61
225,285	77,82
225,503	182,27
225,721	59,39
225,939	120,83
226,157	104,45
226,375	215,04
226,592	104,45
226,81	86,01
227,028	180,22
227,246	167,93
227,464	143,36
227,682	159,74
227,9	198,65
228,117	172,03
228,335	176,13
228,553	172,03
228,771	204,8
228,989	116,73
229,206	153,6
229,424	131,07
229,642	159,74
229,86	63,49
230,077	204,8
230,295	165,89
230,513	223,23
230,731	172,03
230,948	126,97
231,166	135,17
231,384	102,4
231,601	129,02
231,819	147,45
232,037	145,41
232,254	100,35
232,472	161,79
232,689	57,34
232,907	124,93
233,125	165,89
233,342	198,65
233,56	172,03
233,777	133,12
233,995	86,01
234,213	145,41
234,43	149,5
234,648	67,58
234,865	98,3
235,083	174,08
235,3	129,02
235,518	83,97
235,735	143,36
235,953	124,93
236,17	75,77
236,388	110,59
236,605	145,41
236,822	167,93
237,04	126,97
237,257	149,5
237,475	40,96
237,692	145,41
237,909	178,17
238,127	108,54
238,344	163,84
238,562	36,86
238,779	167,93
238,996	108,54
239,214	165,89
239,431	192,51
239,648	159,74
239,865	110,59
240,083	149,5
240,3	165,89
240,517	163,84
240,735	65,53
240,952	94,21
241,169	206,84
241,386	45,06
241,603	90,11
241,821	131,07
242,038	208,89
242,255	190,46
242,472	53,25
242,689	141,31
242,907	208,89
243,124	194,56
243,341	108,54
243,558	61,44
243,775	137,21
243,992	174,08
244,209	88,06
244,426	256
244,643	165,89
244,86	155,65
245,078	45,06
245,295	139,26
245,512	124,93
245,729	141,31
245,946	118,78
246,163	131,07
246,38	129,02
246,597	157,69
246,814	176,13
247,031	100,35
247,248	73,73
247,464	172,03
247,681	143,36
247,898	231,42
248,115	176,13
248,332	186,37
248,549	174,08
248,766	186,37
248,983	163,84
249,2	235,52
249,417	157,69
249,633	157,69
249,85	212,99
250,067	69,63
250,284	157,69
250,501	65,53
250,717	157,69
250,934	92,16
251,151	126,97
251,368	75,77
251,585	208,89
251,801	137,21
252,018	139,26
252,235	126,97
252,451	96,25
252,668	126,97
252,885	129,02
253,102	167,93
253,318	135,17
253,535	75,77
253,752	110,59
253,968	124,93
254,185	61,44
254,401	120,83
254,618	159,74
254,835	120,83
255,051	223,23
255,268	108,54
255,484	174,08
255,701	96,25
255,917	153,6
256,134	141,31
256,351	108,54
256,567	108,54
256,784	139,26
257	114,69
257,217	122,88
257,433	102,4
257,65	120,83
257,866	167,93
258,082	22,53
258,299	96,25
258,515	133,12
258,732	149,5
258,948	153,6
259,165	206,84
259,381	188,41
259,597	88,06
259,814	192,51
260,03	110,59
260,246	122,88
260,463	159,74
260,679	217,08
260,895	135,17
261,112	194,56
261,328	98,3
261,544	178,17
261,761	194,56
261,977	159,74
262,193	106,49
262,409	219,13
262,626	243,71
262,842	79,87
263,058	151,55
263,274	206,84
263,49	153,6
263,707	176,13
263,923	100,35
264,139	145,41
264,355	153,6
264,571	139,26
264,787	139,26
265,004	155,65
265,22	126,97
265,436	174,08
265,652	88,06
265,868	116,73
266,084	98,3
266,3	96,25
266,516	133,12
266,732	65,53
266,948	116,73
267,164	153,6
267,38	153,6
267,596	139,26
267,812	251,9
268,028	172,03
268,244	124,93
268,46	188,41
268,676	141,31
268,892	131,07
269,108	114,69
269,324	43,01
269,54	106,49
269,756	149,5
269,972	94,21
270,188	231,42
270,403	139,26
270,619	141,31
270,835	180,22
271,051	227,32
271,267	147,45
271,483	182,27
271,698	145,41
271,914	118,78
272,13	176,13
272,346	167,93
272,562	153,6
272,777	145,41
272,993	118,78
273,209	122,88
273,425	184,32
273,64	129,02
273,856	190,46
274,072	182,27
274,287	88,06
274,503	120,83
274,719	149,5
274,934	77,82
275,15	110,59
275,366	174,08
275,581	163,84
275,797	186,37
276,012	102,4
276,228	106,49
276,444	114,69
276,659	83,97
276,875	143,36
277,09	112,64
277,306	135,17
277,521	126,97
277,737	172,03
277,952	204,8
278,168	120,83
278,383	192,51
278,599	88,06
278,814	210,94
279,03	157,69
279,245	215,04
279,461	120,83
279,676	184,32
279,892	137,21
280,107	151,55
280,322	202,75
280,538	133,12
280,753	100,35
280,969	153,6
281,184	143,36
281,399	247,8
281,615	196,6
281,83	190,46
282,045	192,51
282,26	73,73
282,476	153,6
282,691	151,55
282,906	190,46
283,122	67,58
283,337	212,99
283,552	192,51
283,767	124,93
283,983	163,84
284,198	184,32
284,413	147,45
284,628	118,78
284,843	190,46
285,058	90,11
285,274	192,51
285,489	71,68
285,704	141,31
285,919	98,3
286,134	180,22
286,349	81,92
286,564	61,44
286,779	192,51
286,995	204,8
287,21	155,65
287,425	186,37
287,64	194,56
287,855	116,73
288,07	116,73
288,285	131,07
288,5	208,89
288,715	264,19
288,93	143,36
289,145	135,17
289,36	249,85
289,575	122,88
289,79	202,75
290,004	122,88
290,219	206,84
290,434	69,63
290,649	184,32
290,864	200,7
291,079	196,6
291,294	120,83
291,509	253,95
291,724	192,51
291,938	159,74
292,153	227,32
292,368	192,51
292,583	176,13
292,798	163,84
293,012	159,74
293,227	210,94
293,442	94,21
293,657	245,76
293,871	282,62
294,086	163,84
294,301	272,38
294,516	202,75
294,73	155,65
294,945	94,21
295,16	141,31
295,374	258,04
295,589	184,32
295,804	40,96
296,018	245,76
296,233	282,62
296,447	165,89
296,662	98,3
296,877	262,14
297,091	137,21
297,306	151,55
297,52	182,27
297,735	120,83
297,949	124,93
298,164	194,56
298,378	139,26
298,593	135,17
298,807	141,31
299,022	178,17
299,236	219,13
299,451	151,55
299,665	206,84
299,88	190,46
300,094	161,79
300,309	208,89
300,523	165,89
300,737	137,21
300,952	190,46
301,166	161,79
301,381	178,17
301,595	90,11
301,809	194,56
302,024	253,95
302,238	139,26
302,452	157,69
302,667	135,17
302,881	258,04
303,095	215,04
303,309	149,5
303,524	151,55
303,738	192,51
303,952	161,79
304,166	210,94
304,381	71,68
304,595	237,56
304,809	223,23
305,023	208,89
305,237	186,37
305,452	159,74
305,666	247,8
305,88	208,89
306,094	229,37
306,308	251,9
306,522	237,56
306,736	174,08
306,95	208,89
307,164	180,22
307,379	243,71
307,593	348,15
307,807	296,96
308,021	219,13
308,235	309,24
308,449	276,48
308,663	370,68
308,877	387,07
309,091	432,12
309,305	473,08
309,519	378,87
309,733	405,5
309,947	430,07
310,161	514,04
310,374	440,31
310,588	571,38
310,802	550,9
311,016	616,44
311,23	589,81
311,444	667,64
311,658	589,81
311,872	798,71
312,085	837,62
312,299	821,24
312,513	870,39
312,727	849,91
312,941	819,19
313,154	849,91
313,368	921,59
313,582	948,21
313,796	1034,22
314,009	1056,75
314,223	1208,3
314,437	1277,93
314,651	1341,42
314,864	1378,28
315,078	1445,87
315,292	1495,02
315,505	1578,98
315,719	1785,83
315,933	1900,51
316,146	1984,48
316,36	2052,06
316,573	2283,49
316,787	2381,79
317,001	2351,07
317,214	2705,37
317,428	2654,17
317,641	2838,48
317,855	3026,9
318,068	3131,34
318,282	3270,61
318,495	3327,95
318,709	3373
318,922	3590,09
319,136	3516,36
319,349	3622,86
319,563	3721,16
319,776	3856,33
319,99	3653,58
320,203	3737,54
320,417	3784,65
320,63	3962,82
320,843	3995,59
321,057	4364,22
321,27	4517,82
321,483	4693,94
321,697	4894,65
321,91	5005,24
322,124	5320,62
322,337	5337,01
322,55	5461,93
322,763	5812,14
322,977	5758,89
323,19	6227,87
323,403	6518,68
323,617	6948,76
323,83	7307,15
324,043	7477,13
324,256	7808,9
324,469	8163,2
324,683	8281,99
324,896	8480,64
325,109	8351,62
325,322	8439,68
325,535	8761,21
325,748	8636,28
325,962	8998,77
326,175	9054,07
326,388	9279,35
326,601	9699,18
326,814	9938,79
327,027	10186,6
327,24	10260,32
327,453	10772,32
327,666	10608,48
327,879	10669,92
328,092	11112,28
328,305	10854,23
328,518	10907,48
328,731	10829,66
328,944	10809,18
329,157	10712,92
329,37	11013,98
329,583	11011,93
329,796	10932,06
330,009	10954,58
330,222	11147,09
330,435	11282,26
330,648	11327,32
330,861	11495,25
331,073	11267,92
331,286	11304,79
331,499	11130,71
331,712	11530,06
331,925	11605,84
332,138	11630,41
332,35	11822,92
332,563	11933,51
332,776	11865,93
332,989	11923,27
333,202	11880,27
333,414	11736,91
333,627	12021,58
333,84	11757,39
334,053	11478,86
334,265	11401,04
334,478	11499,34
334,691	11431,76
334,903	11415,38
335,116	11323,22
335,329	11566,93
335,541	11818,83
335,754	11759,44
335,966	11827,02
336,179	12097,35
336,392	12574,53
336,604	12392,26
336,817	12721,98
337,029	13004,6
337,242	13145,91
337,454	13260,6
337,667	13422,39
337,88	13821,74
338,092	13768,49
338,305	14126,89
338,517	14122,79
338,729	14133,03
338,942	13758,25
339,154	14149,42
339,367	14182,18
339,579	14108,46
339,792	14528,29
340,004	14681,89
340,217	14350,12
340,429	14548,77
340,641	14343,97
340,854	14282,53
341,066	14257,96
341,278	14044,97
341,491	14182,18
341,703	13682,48
341,915	13907,76
342,128	13817,65
342,34	13643,57
342,552	13745,97
342,764	13729,58
342,977	13610,8
343,189	13946,67
343,401	13969,19
343,613	13969,19
343,826	14233,38
344,038	14268,2
344,25	14397,22
344,462	14763,81
344,674	14108,46
344,886	14468,9
345,099	14327,59
345,311	14294,82
345,523	14642,98
345,735	14575,39
345,947	14536,48
346,159	14634,78
346,371	14487,33
346,583	14610,21
346,795	14685,98
347,007	14757,66
347,219	14692,13
347,431	15142,68
347,643	15167,26
347,855	15109,91
348,067	15716,11
348,279	16099,08
348,491	15804,17
348,703	16197,38
348,915	16011,02
349,127	16146,19
349,339	16299,78
349,551	15984,4
349,763	16084,75
349,975	15816,46
350,187	15961,87
350,399	16256,78
350,61	15902,48
350,822	16422,66
351,034	16340,74
351,246	16256,78
351,458	16692,99
351,669	16989,95
351,881	17045,24
352,093	17700,59
352,305	17288,95
352,517	17716,98
352,728	17710,83
352,94	17909,49
353,152	17643,25
353,363	17876,72
353,575	17338,1
353,787	17391,35
353,999	16779,01
354,21	17006,33
354,422	16328,45
354,633	16760,58
354,845	15519,51
355,057	15142,68
355,268	15005,47
355,48	14438,18
355,692	14530,34
355,903	14352,16
356,115	13907,76
356,326	14139,18
356,538	14243,62
356,749	14298,92
356,961	14563,11
357,172	15232,79
357,384	15527,7
357,595	16078,6
357,807	15849,23
358,018	16291,59
358,23	16418,57
358,441	16674,56
358,653	17022,72
358,864	16531,2
359,075	16742,14
359,287	16604,93
359,498	17153,79
359,709	17303,29
359,921	16776,96
360,132	17258,23
360,344	17624,82
360,555	17837,81
360,766	17649,39
360,977	18333,42
361,189	18104,04
361,4	18335,46
361,611	18710,24
361,823	18462,44
362,034	19068,64
362,245	19068,64
362,456	19156,7
362,667	19412,7
362,879	19797,71
363,09	20448,97
363,301	20586,18
363,512	21024,45
363,723	21341,88
363,935	21888,69
364,146	22113,97
364,357	22064,82
364,568	22498,98
364,779	22992,55
364,99	22644,39
365,201	22566,57
365,412	22591,14
365,623	22392,49
365,834	22451,88
366,045	22855,33
366,256	22150,83
366,467	22277,8
366,678	22472,36
366,889	22419,11
367,1	22277,8
367,311	22804,13
367,522	22650,53
367,733	23137,95
367,944	22734,5
368,155	23017,12
368,366	22744,74
368,577	23189,15
368,788	23029,41
368,999	22830,76
369,209	22759,08
369,42	22851,24
369,631	22322,86
369,842	22324,91
370,053	22128,3
370,264	21728,95
370,474	21427,9
370,685	21161,66
370,896	20582,09
371,107	20567,75
371,317	19687,12
371,528	19613,4
371,739	19236,57
371,95	19388,12
372,16	19111,64
372,371	18990,81
372,582	18919,14
372,792	18972,38
373,003	18863,84
373,214	19736,27
373,424	19568,34
373,635	19721,94
373,846	20647,62
374,056	20799,17
374,267	20707,01
374,477	21190,33
374,688	21718,71
374,898	21880,5
375,109	22539,94
375,319	23350,94
375,53	23889,56
375,74	24974,98
375,951	24389,26
376,161	24764,04
376,372	25321,09
376,582	24925,83
376,793	24764,04
377,003	24583,82
377,214	24104,59
377,424	24108,69
377,635	24536,71
377,845	23064,22
378,055	23332,51
378,266	23656,09
378,476	22951,59
378,686	23275,16
378,897	23205,53
379,107	22986,4
379,317	22646,44
379,528	22136,49
379,738	21526,2
379,948	20707,01
380,158	19810
380,369	19396,31
380,579	18921,18
380,789	17886,96
380,999	17637,11
381,21	17266,42
381,42	16781,06
381,63	16740,1
381,84	16877,31
382,05	16813,82
382,261	16998,14
382,471	17872,62
382,681	17948,4
382,891	19003,1
383,101	18990,81
383,311	19060,45
383,521	19291,87
383,731	19396,31
383,941	19828,43
384,151	20362,95
384,361	20547,27
384,571	20879,04
384,781	20410,06
384,991	21296,83
385,201	20479,69
385,411	20897,47
385,621	20707,01
385,831	20811,46
386,041	20590,28
386,251	20881,09
386,461	20876,99
386,671	21415,61
386,881	21481,14
387,091	21358,27
387,301	21694,13
387,511	22808,23
387,72	22572,71
387,93	23127,71
388,14	23330,46
388,35	24120,98
388,56	24755,85
388,769	24383,12
388,979	25257,6
389,189	24839,81
389,399	25267,84
389,609	25222,78
389,818	24739,46
390,028	24391,31
390,238	23991,95
390,447	23279,26
390,657	21581,49
390,867	20473,54
391,076	19068,64
391,286	18378,47
391,496	17503,99
391,705	17708,79
391,915	17796,85
392,125	18142,96
392,334	18476,77
392,544	18755,3
392,753	19138,27
392,963	20637,38
393,172	20770,5
393,382	21376,7
393,591	21644,98
393,801	21685,94
394,01	20639,43
394,22	20784,83
394,429	20790,98
394,639	19562,2
394,848	19467,99
395,058	19216,09
395,267	19338,97
395,477	19621,59
395,686	21026,5
395,895	21649,08
396,105	22843,04
396,314	23508,63
396,524	24907,4
396,733	26072,69
396,942	27631,19
397,152	28407,37
397,361	28614,22
397,57	29369,92
397,78	29789,75
397,989	30307,89
398,198	32044,57
398,407	32058,9
398,617	31727,13
398,826	33033,74
399,035	32351,76
399,244	32321,04
399,453	33220,1
399,663	33902,07
399,872	34354,68
400,081	34418,16
400,29	33713,66
400,499	34440,69
400,708	33230,34
400,917	34481,65
401,127	33185,29
401,336	34096,63
401,545	33314,31
401,754	33316,36
401,963	34428,4
402,172	33752,57
402,381	32724,49
402,59	34586,1
402,799	33422,85
403,008	33052,17
403,217	32364,05
403,426	33050,12
403,635	32536,08
403,844	32593,42
404,053	32919,05
404,262	32601,61
404,471	32405,01
404,68	32525,84
404,888	31452,7
405,097	31714,84
405,306	32460,3
405,515	32329,23
405,724	32050,71
405,933	33461,76
406,142	32699,92
406,35	32622,09
406,559	34829,8
406,768	34291,19
406,977	33988,09
407,185	34770,41
407,394	33564,16
407,603	34088,44
407,812	33457,67
408,02	33629,69
408,229	32826,89
408,438	32943,63
408,646	33068,55
408,855	32798,22
409,064	33598,98
409,272	33666,56
409,481	34663,92
409,69	34645,49
409,898	34170,36
410,107	35349,99
410,315	34385,4
410,524	35632,61
410,733	34991,59
410,941	35227,11
411,15	34678,25
411,358	34946,54
411,567	34973,16
411,775	35329,51
411,984	35024,36
412,192	35261,93
412,401	35053,03
412,609	35507,68
412,818	35001,83
413,026	35036,65
413,234	35040,75
413,443	34872,81
413,651	34964,97
413,86	35026,41
414,068	35044,84
414,276	35223,01
414,485	34495,99
414,693	34729,45
414,901	34993,64
415,11	35382,76
415,318	33945,08
415,526	34665,97
415,734	34029,05
415,943	34059,77
416,151	33662,46
416,359	33521,15
416,567	32896,52
416,776	33054,22
416,984	33295,88
417,192	33312,26
417,4	32630,29
417,608	31829,53
417,817	32781,84
418,025	32560,66
418,233	33027,59
418,441	32222,74
418,649	33091,08
418,857	33867,26
419,065	33089,03
419,273	32417,3
419,481	32998,92
419,689	34254,33
419,897	34055,67
420,105	33932,79
420,313	32933,39
420,521	32579,09
420,729	31979,03
420,937	32431,63
421,145	31850,01
421,353	32495,12
421,561	32077,33
421,769	32405,01
421,977	32656,91
422,185	31165,99
422,393	32531,98
422,601	32962,06
422,809	31960,6
423,017	32108,05
423,224	31753,76
423,432	31811,1
423,64	31581,73
423,848	32982,54
424,056	31172,13
424,263	32321,04
424,471	31604,25
424,679	30864,94
424,887	31628,83
425,094	31907,35
425,302	30979,62
425,51	31600,16
425,718	30596,65
425,925	30641,71
426,133	30651,95
426,341	31153,7
426,548	31401,5
426,756	30666,28
426,964	30000,69
427,171	30746,15
427,379	29912,63
427,586	29255,23
427,794	28692,04
428,001	28956,23
428,209	27989,59
428,417	26838,63
428,624	27309,66
428,832	26400,37
429,039	25568,89
429,247	25343,61
429,454	26957,41
429,662	28857,93
429,869	27178,59
430,076	29513,28
430,284	28499,53
430,491	29632,06
430,699	30969,38
430,906	30856,75
431,114	30600,75
431,321	31292,96
431,528	30959,14
431,736	32454,16
431,943	33121,8
432,15	31479,33
432,358	31852,06
432,565	32083,48
432,772	31411,74
432,979	32620,05
433,187	32452,11
433,394	32939,53
433,601	33838,59
433,808	34067,96
434,016	33570,3
434,223	34924,01
434,43	36470,23
434,637	35341,8
434,844	36603,35
435,052	36677,07
435,259	35569,12
435,466	35141,1
435,673	34268,66
435,88	35855,84
436,087	35804,64
436,294	35118,57
436,501	33363,46
436,708	33072,65
436,915	33627,65
437,122	34113,02
437,329	32781,84
437,537	34156,02
437,743	33924,6
437,95	33480,19
438,157	34180,6
438,364	34997,74
438,571	34483,7
438,778	34020,86
438,985	36048,35
439,192	35102,18
439,399	35827,17
439,606	34469,36
439,813	36117,98
440,02	37582,27
440,227	36953,55
440,433	36220,38
440,64	37524,93
440,847	36021,72
441,054	36466,13
441,261	37836,22
441,467	36910,54
441,674	36931,02
441,881	37473,73
442,088	37385,67
442,294	36857,29
442,501	36814,29
442,708	36752,85
442,914	37672,39
443,121	38077,88
443,328	37191,11
443,534	38528,44
443,741	36664,78
443,948	35321,32
444,154	36720,08
444,361	35737,05
444,568	35393
444,774	34815,47
444,981	35304,93
445,187	35569,12
445,394	36189,66
445,6	35771,87
445,807	38786,48
446,013	36349,4
446,22	37096,91
446,426	37221,83
446,633	37369,29
446,839	37496,26
447,046	36175,32
447,252	38014,4
447,459	37238,22
447,665	36318,68
447,871	37477,83
448,078	38632,88
448,284	36988,36
448,491	38096,31
448,697	38927,79
448,903	38858,16
449,11	38958,51
449,316	38460,85
449,522	38569,4
449,728	39013,8
449,935	38737,33
450,141	38104,51
450,347	39077,29
450,553	37213,64
450,76	37121,48
450,966	37012,94
451,172	36746,7
451,378	37127,63
451,584	36541,91
451,791	36654,54
451,997	36500,95
452,203	36611,54
452,409	36783,57
452,615	37320,13
452,821	35540,45
453,027	35681,76
453,233	37141,96
453,44	35841,5
453,646	36711,89
453,852	36898,25
454,058	37438,92
454,264	37064,14
454,47	38555,06
454,676	37535,17
454,882	39517,6
455,088	37017,04
455,294	37615,04
455,5	37983,68
455,705	38694,32
455,911	38069,69
456,117	37858,75
456,323	38217,14
456,529	36611,54
456,735	38256,06
456,941	37664,19
457,147	37791,17
457,352	37381,57
457,558	37260,74
457,764	37940,67
457,97	37578,18
458,176	37526,98
458,381	37848,51
458,587	37426,63
458,793	37942,72
458,999	37377,48
459,204	40357,27
459,41	40928,66
459,616	38895,02
459,821	39556,52
460,027	40402,33
460,233	40289,69
460,438	39812,51
460,644	40627,6
460,85	39755,17
461,055	40009,12
461,261	40963,47
461,466	38639,03
461,672	38423,99
461,878	41110,92
462,083	38860,21
462,289	39128,49
462,494	39120,3
462,7	38086,07
462,905	37393,86
463,111	38929,84
463,316	39785,89
463,522	40330,65
463,727	40082,84
463,932	41031,05
464,138	41125,26
464,343	41579,91
464,549	40623,51
464,754	42681,72
464,959	42753,4
465,165	42610,04
465,37	41391,5
465,575	41293,19
465,781	43240,81
465,986	43433,32
466,191	42268,03
466,397	42767,73
466,602	41338,25
466,807	42976,62
467,012	42837,36
467,218	43486,57
467,423	43044,21
467,628	45190,48
467,833	45860,16
468,038	44479,83
468,244	43892,07
468,449	45509,96
468,654	44934,48
468,859	44262,75
469,064	44324,19
469,269	44016,99
469,474	45034,83
469,679	46165,31
469,885	45131,09
470,09	46679,35
470,295	47164,72
470,5	46814,52
470,705	47721,77
470,91	47263,02
471,115	47840,55
471,32	48755,99
471,525	48729,37
471,73	48393,5
471,935	48764,18
472,139	48215,33
472,344	48993,56
472,549	49349,9
472,754	49100,05
472,959	49911,05
473,164	49057,04
473,369	48932,12
473,574	51236,08
473,778	51217,65
473,983	51248,37
474,188	51778,79
474,393	50586,88
474,598	51217,65
474,802	50638,08
475,007	51090,68
475,212	52073,7
475,417	51131,64
475,621	51608,81
475,826	52620,51
476,031	52862,17
476,235	52991,19
476,44	54199,49
476,645	53486,8
476,849	54899,9
477,054	55071,93
477,259	54848,7
477,463	55477,43
477,668	55026,87
477,872	56638,62
478,077	56313
478,282	56102,06
478,486	56876,19
478,691	56937,63
478,895	56777,89
479,1	57013,4
479,304	57820,3
479,509	57447,57
479,713	57934,99
479,918	57871,5
480,122	58053,77
480,326	59444,34
480,531	59858,03
480,735	59323,51
480,94	59522,16
481,144	61095
481,348	58489,99
481,553	60148,84
481,757	58989,69
481,961	59835,5
482,166	60073,07
482,37	60322,92
482,574	59018,36
482,778	59610,23
482,983	60748,9
483,187	59860,08
483,391	60136,55
483,595	59255,93
483,8	58049,67
484,004	58033,29
484,208	57828,49
484,412	56192,17
484,616	55622,83
484,821	54951,1
485,025	53949,64
485,229	54965,43
485,433	54781,12
485,637	55903,4
485,841	55555,25
486,045	56390,82
486,249	56779,93
486,453	56882,33
486,657	57674,9
486,861	58639,49
487,065	57214,1
487,269	58481,8
487,473	57818,25
487,677	59176,06
487,881	60351,59
488,085	59829,36
488,289	60499,04
488,493	61074,52
488,697	61650
488,901	62321,74
489,105	61795,41
489,309	61965,39
489,512	61344,86
489,716	61588,56
489,92	61174,87
490,124	60916,83
490,328	61230,17
490,531	60462,18
490,735	60634,21
490,939	60447,85
491,143	60626,02
491,346	60583,01
491,55	61236,31
491,754	61684,82
491,958	61572,18
492,161	61174,87
492,365	61453,4
492,569	61187,16
492,772	61766,74
492,976	62135,37
493,18	61885,52
493,383	62854,21
493,587	63136,83
493,79	63042,62
493,994	62370,89
494,197	62116,94
494,401	62387,27
494,605	62299,21
494,808	63009,85
495,012	62760
495,215	62104,65
495,419	62544,97
495,622	62428,23
495,825	62444,62
496,029	62233,67
496,232	62417,99
496,436	61545,56
496,639	61559,89
496,843	60816,48
497,046	61230,17
497,249	60607,59
497,453	60306,54
497,656	60605,54
497,859	60468,33
498,063	60515,43
498,266	60898,4
498,469	59843,69
498,673	59438,2
498,876	59022,46
499,079	59249,78
499,282	58043,53
499,485	58258,57
499,689	57918,6
499,892	57640,08
500,095	57189,53
500,298	57775,25
500,501	56732,83
500,705	57535,63
500,908	57445,52
501,111	58049,67
501,314	57140,38
501,517	57881,74
501,72	57584,79
501,923	56792,22
502,126	57218,2
502,329	57908,36
502,532	56751,26
502,735	56392,87
502,938	56437,92
503,141	56769,69
503,344	56818,84
503,547	56911
503,75	57134,23
503,953	58012,81
504,156	57891,98
504,359	57836,69
504,562	58107,02
504,765	58500,23
504,968	58317,96
505,17	58094,73
505,373	58117,26
505,576	57681,04
505,779	57668,75
505,982	57379,99
506,185	57746,57
506,387	57318,55
506,59	56544,42
506,793	56933,53
506,996	56523,94
507,198	57529,49
507,401	56757,41
507,604	57351,32
507,807	57629,84
508,009	57848,97
508,212	56816,8
508,415	57515,15
508,617	57674,9
508,82	56716,45
509,022	56298,66
509,225	57584,79
509,428	57123,99
509,63	56894,62
509,833	57095,32
510,035	57752,72
510,238	57181,34
510,44	57736,33
510,643	57750,67
510,845	57554,07
511,048	56628,38
511,25	56687,77
511,453	56695,97
511,655	57439,38
511,858	55917,74
512,06	55850,16
512,262	55528,62
512,465	55258,29
512,667	55133,37
512,87	55274,68
513,072	54813,88
513,274	54987,96
513,477	55080,12
513,679	55714,99
513,881	55178,42
514,084	55436,47
514,286	54994,1
514,488	55315,64
514,69	55043,26
514,893	54111,43
515,095	53224,66
515,297	52569,31
515,499	50996,47
515,701	50851,06
515,904	50752,76
516,106	50719,99
516,308	50570,49
516,51	50953,46
516,712	50832,63
516,914	50658,55
517,116	51184,88
517,318	50709,75
517,52	50541,82
517,722	51150,07
517,925	51367,15
518,127	52002,02
518,329	53042,39
518,531	52622,56
518,733	53077,21
518,935	53869,77
519,136	53404,88
519,338	54002,89
519,54	53517,52
519,742	54695,1
519,944	54179,01
520,146	54736,06
520,348	55110,84
520,55	54664,38
520,752	55190,71
520,954	55383,22
521,155	54295,75
521,357	54498,5
521,559	54002,89
521,761	54770,88
521,963	54244,55
522,164	54514,88
522,366	54629,57
522,568	55676,08
522,77	55063,74
522,971	55522,48
523,173	55631,02
523,375	55522,48
523,576	54990,01
523,778	55270,58
523,98	55612,59
524,181	55028,92
524,383	54494,4
524,584	55020,73
524,786	54232,26
524,988	52765,91
525,189	52483,3
525,391	51584,24
525,592	51197,17
525,794	51315,95
525,995	50607,36
526,197	50705,66
526,398	50943,22
526,6	51500,27
526,801	51434,74
527,003	51557,61
527,204	51436,78
527,406	52245,73
527,607	52137,19
527,808	52782,3
528,01	51858,66
528,211	52593,89
528,412	52839,64
528,614	52038,89
528,815	51795,18
529,016	52843,74
529,218	52335,84
529,419	52454,62
529,62	52067,56
529,822	52036,84
530,023	52315,36
530,224	52161,76
530,425	51854,57
530,626	51281,14
530,828	50568,44
531,029	51033,33
531,23	49024,28
531,431	49380,62
531,632	48907,54
531,833	49016,08
532,035	49038,61
532,236	48962,84
532,437	48762,14
532,638	48512,28
532,839	48944,41
533,04	48911,64
533,241	48362,78
533,442	49257,74
533,643	48555,29
533,844	48547,1
534,045	48555,29
534,246	48764,18
534,447	48928,02
534,648	48569,63
534,849	49267,98
535,05	48231,71
535,251	48157,99
535,451	47492,4
535,652	47582,51
535,853	47248,69
536,054	47203,63
536,255	47119,66
536,456	46710,07
536,657	47498,54
536,857	47144,24
537,058	46527,8
537,259	47058,23
537,46	46761,27
537,66	46261,57
537,861	46099,78
538,062	45962,56
538,263	45835,59
538,463	44991,83
538,664	45108,56
538,865	44301,66
539,065	44645,72
539,266	43820,39
539,466	44303,71
539,667	43230,57
539,868	43873,63
540,068	43529,58
540,269	43752,8
540,469	43969,89
540,67	43609,45
540,87	43861,35
541,071	43879,78
541,271	43455,85
541,472	43421,03
541,672	43089,26
541,873	43052,4
542,073	41971,07
542,274	42855,79
542,474	42978,67
542,675	42755,44
542,875	43312,49
543,075	43375,98
543,276	42589,56
543,476	43042,16
543,676	42347,9
543,877	42726,77
544,077	42569,08
544,277	42435,96
544,478	42460,54
544,678	42464,63
544,878	42182,01
545,078	42540,41
545,279	42050,94
545,479	42116,48
545,679	41985,41
545,879	41610,63
546,079	41719,17
546,28	41479,56
546,48	40957,33
546,68	41080,21
546,88	40588,69
547,08	40797,59
547,28	41323,91
547,48	40973,71
547,68	41053,58
547,88	40533,4
548,081	40975,76
548,281	40916,37
548,481	40924,56
548,681	40658,32
548,881	40351,13
549,081	40643,99
549,28	39982,49
549,48	40289,69
549,68	40412,57
549,88	41006,48
550,08	39761,31
550,28	39894,43
550,48	39835,04
550,68	40361,37
550,88	39812,51
551,08	39931,29
551,279	39730,59
551,479	39134,63
551,679	39247,27
551,879	39318,95
552,079	39234,99
552,278	39026,09
552,478	39011,76
552,678	38985,13
552,878	39460,26
553,077	39077,29
553,277	38735,28
553,477	39224,75
553,676	39101,87
553,876	38960,56
554,076	38643,12
554,275	38798,77
554,475	38616,5
554,674	39146,92
554,874	38831,54
555,074	38012,35
555,273	38186,43
555,473	38286,78
555,672	37139,91
555,872	37502,4
556,071	37662,15
556,271	37731,78
556,47	37184,97
556,67	36685,26
556,869	36902,35
557,068	36724,18
557,268	36167,13
557,467	36191,7
557,667	36173,27
557,866	35827,17
558,065	35335,65
558,265	35677,66
558,464	35186,15
558,663	35659,23
558,863	35040,75
559,062	35667,42
559,261	35143,14
559,461	35569,12
559,66	35323,36
559,859	35481,06
560,058	34997,74
560,258	35636,7
560,457	34770,41
560,656	35620,32
560,855	34698,73
561,054	35114,47
561,253	34522,61
561,453	35001,83
561,652	34907,63
561,851	35069,42
562,05	34817,52
562,249	34653,68
562,448	34643,44
562,647	34575,86
562,846	34485,75
563,045	34086,39
563,244	34047,48
563,443	34246,13
563,642	34381,3
563,841	33951,23
564,04	33857,02
564,239	34221,56
564,438	33033,74
564,637	33240,58
564,836	32923,15
565,035	32327,19
565,234	32933,39
565,432	32857,61
565,631	32257,56
565,83	33068,55
566,029	32540,18
566,228	32445,97
566,427	32779,79
566,625	32681,49
566,824	32394,77
567,023	32554,51
567,222	31864,35
567,42	32063
567,619	31802,91
567,818	31745,56
568,016	31505,95
568,215	31964,7
568,414	31555,1
568,612	31796,76
568,811	31424,03
569,01	31266,34
569,208	30324,27
569,407	31090,21
569,605	30623,28
569,804	30975,53
570,002	30058,04
570,201	30457,39
570,4	29982,26
570,598	30127,67
570,797	30326,32
570,995	30268,98
571,193	30232,11
571,392	30471,73
571,59	30320,18
571,789	30492,21
571,987	30459,44
572,186	30039,61
572,384	30105,14
572,582	30291,51
572,781	30314,03
572,979	29802,04
573,177	29754,94
573,376	29875,77
573,574	29505,09
573,772	29834,81
573,971	29410,88
574,169	29103,68
574,367	28898,89
574,565	29234,75
574,763	28667,47
574,962	28991,05
575,16	28554,83
575,358	28993,09
575,556	28800,58
575,754	28661,32
575,952	28278,35
576,151	28708,43
576,349	28425,81
576,547	28440,14
576,745	28499,53
576,943	28014,16
577,141	27860,57
577,339	27915,86
577,537	28165,71
577,735	27643,48
577,933	27760,22
578,131	27977,3
578,329	27897,43
578,527	27924,05
578,725	28345,94
578,923	28405,33
579,121	28028,5
579,319	28448,33
579,516	28231,25
579,714	28540,49
579,912	28257,87
580,11	28395,09
580,308	28438,09
580,506	28681,8
580,704	28315,22
580,901	28434
581,099	29070,92
581,297	28718,67
581,495	28821,06
581,692	28796,49
581,89	28560,97
582,088	28997,19
582,285	28747,34
582,483	28827,21
582,681	29050,44
582,878	28722,76
583,076	28726,86
583,274	28954,18
583,471	28857,93
583,669	28616,27
583,866	28577,36
584,064	28759,63
584,262	27922,01
584,459	28810,82
584,657	28145,23
584,854	28315,22
585,052	27684,44
585,249	28038,74
585,447	28063,32
585,644	27950,68
585,841	27893,33
586,039	28005,97
586,236	27893,33
586,434	28102,23
586,631	27797,08
586,828	27977,3
587,026	27481,69
587,223	27536,99
587,42	26822,25
587,618	26717,8
587,815	26531,44
588,012	25781,88
588,21	25583,23
588,407	25372,28
588,604	25433,72
588,801	24766,09
588,999	25085,57
589,196	25069,19
589,393	25550,46
589,59	25777,78
589,787	25398,91
589,984	25517,69
590,182	25398,91
590,379	25773,69
590,576	25687,67
590,773	25736,82
590,97	25587,32
591,167	25880,18
591,364	25435,77
591,561	25581,18
591,758	25519,74
591,955	25437,82
592,152	25751,16
592,349	25476,73
592,546	25732,73
592,743	26181,23
592,94	25284,22
593,137	25667,19
593,334	25237,12
593,531	24901,25
593,727	24983,17
593,924	25161,34
594,121	24958,6
594,318	25044,61
594,515	24581,77
594,712	25255,55
594,908	24612,49
595,105	24805
595,302	24587,91
595,499	24755,85
595,696	24716,93
595,892	24563,34
596,089	24553,1
596,286	24465,03
596,482	24440,46
596,679	24487,56
596,876	24120,98
597,072	24082,06
597,269	24116,88
597,466	23965,33
597,662	23805,59
597,859	23623,32
598,055	23864,98
598,252	23533,21
598,448	24108,69
598,645	23621,27
598,841	23443,1
599,038	23496,35
599,234	23633,56
599,431	23371,42
599,627	23320,22
599,824	23328,41
600,02	23047,84
600,217	23352,99
600,413	22986,4
600,609	22980,26
600,806	22757,03
601,002	22759,08
601,198	22527,66
601,395	22238,89
601,591	22814,37
601,787	22785,7
601,984	22783,65
602,18	22986,4
602,376	22859,43
602,572	23301,79
602,769	22597,29
602,965	22922,91
603,161	22673,06
603,357	22859,43
603,553	22498,98
603,75	22965,92
603,946	22683,3
604,142	22814,37
604,338	22570,66
604,534	22898,34
604,73	22662,82
604,926	22507,18
605,122	22761,12
605,318	22599,34
605,514	22529,7
605,71	22797,99
605,906	22603,43
606,102	22601,38
606,298	22769,32
606,494	23019,17
606,69	22550,18
606,886	22630,05
607,082	22415,02
607,278	22574,76
607,474	22220,46
607,67	22535,85
607,866	21890,74
608,062	22484,65
608,257	22404,78
608,453	22431,4
608,649	22468,27
608,845	22206,13
609,041	22318,76
609,236	22232,75
609,432	22224,56
609,628	22427,31
609,824	22240,94
610,019	22120,11
610,215	22367,91
610,411	22654,63
610,606	22242,99
610,802	22507,18
610,998	22564,52
611,193	22355,63
611,389	22494,89
611,584	22476,46
611,78	22038,19
611,976	22333,1
612,171	22343,34
612,367	22488,74
612,562	22068,91
612,758	21907,12
612,953	21962,42
613,149	22496,94
613,344	22181,55
613,539	22486,7
613,735	22402,73
613,93	22349,48
614,126	22347,44
614,321	22658,73
614,517	22609,58
614,712	22292,14
614,907	22259,37
615,103	22433,45
615,298	21927,6
615,493	21968,56
615,688	22128,3
615,884	22427,31
616,079	21937,84
616,274	22234,8
616,47	21855,92
616,665	22173,36
616,86	22609,58
617,055	22179,5
617,25	22439,59
617,445	22734,5
617,641	22251,18
617,836	22613,67
618,031	22206,13
618,226	22498,98
618,421	22505,13
618,616	22826,66
618,811	22736,55
619,006	22857,38
619,201	22324,91
619,396	22685,35
619,591	22333,1
619,786	22965,92
619,981	22286
620,176	22617,77
620,371	22365,87
620,566	22546,09
620,761	22091,44
620,956	22427,31
621,151	22064,82
621,346	22400,68
621,541	21747,38
621,735	22220,46
621,93	21618,36
622,125	21806,77
622,32	21063,36
622,515	21501,62
622,709	21618,36
622,904	21155,52
623,099	21079,74
623,294	21339,83
623,488	20854,47
623,683	21173,95
623,878	20747,97
624,072	20840,13
624,267	20825,79
624,462	20459,21
624,656	20393,67
624,851	20586,18
625,046	20186,83
625,24	20610,76
625,435	20250,31
625,629	20145,87
625,824	20506,31
626,018	20336,33
626,213	19783,38
626,407	20000,46
626,602	19764,95
626,796	19613,4
626,991	19230,43
627,185	18978,53
627,38	18716,39
627,574	18915,04
627,768	18611,94
627,963	18685,67
628,157	18843,36
628,352	19097,31
628,546	18589,41
628,74	18720,48
628,935	18476,77
629,129	18646,76
629,323	18138,86
629,517	18333,42
629,712	18484,97
629,906	18403,05
630,1	18482,92
630,294	18376,42
630,489	18366,18
630,683	18343,66
630,877	18357,99
631,071	18112,24
631,265	18190,06
631,459	18343,66
631,653	18507,49
631,848	18839,26
632,042	18106,09
632,236	18446,05
632,43	18458,34
632,624	18253,55
632,818	18487,01
633,012	18474,73
633,206	18231,02
633,4	18642,66
633,594	18456,29
633,788	18550,5
633,982	18345,7
634,176	18441,96
634,369	18579,17
634,563	18577,12
634,757	18411,24
634,951	18628,32
635,145	18808,54
635,339	18521,83
635,533	18157,29
635,726	18573,03
635,92	18218,73
636,114	18366,18
636,308	18300,65
636,501	18169,58
636,695	18403,05
636,889	18517,73
637,083	18372,33
637,276	18271,98
637,47	18390,76
637,664	18333,42
637,857	18392,81
638,051	18521,83
638,244	18226,92
638,438	18499,3
638,632	18386,66
638,825	18061,04
639,019	17948,4
639,212	17936,11
639,406	17831,66
639,599	17989,36
639,793	18091,76
639,986	17739,51
640,18	17997,55
640,373	17874,67
640,567	17907,44
640,76	17874,67
640,954	17802,99
641,147	17639,15
641,34	17616,63
641,534	17874,67
641,727	17755,89
641,92	17716,98
642,114	17825,52
642,307	17897,2
642,5	17620,72
642,694	17409,78
642,887	17612,53
643,08	17694,45
643,273	17719,03
643,467	17547
643,66	17635,06
643,853	17700,59
644,046	17172,22
644,239	17735,41
644,432	17331,96
644,626	17307,38
644,819	17325,82
645,012	17465,08
645,205	17286,9
645,398	17198,84
645,591	17069,82
645,784	16891,65
645,977	16881,41
646,17	17155,83
646,363	16756,48
646,556	16649,99
646,749	16762,62
646,942	17110,78
647,135	16729,86
647,328	16369,41
647,521	16623,36
647,714	16451,33
647,907	16781,06
648,099	16396,04
648,292	16566,02
648,485	16287,5
648,678	16097,03
648,871	15916,81
649,064	16189,19
649,256	16088,84
649,449	16103,18
649,642	15992,59
649,835	16178,95
650,027	16498,44
650,22	16226,06
650,413	16463,62
650,605	16295,69
650,798	16387,85
650,991	15965,96
651,183	16154,38
651,376	15968,01
651,568	16228,1
651,761	15953,68
651,954	16008,97
652,146	16097,03
652,339	16275,21
652,531	16103,18
652,724	16195,34
652,916	15929,1
653,109	16060,17
653,301	16088,84
653,494	16176,91
653,686	15707,92
653,879	15992,59
654,071	15726,35
654,263	15402,77
654,456	15468,31
654,648	15562,51
654,84	15413,01
655,033	15140,63
655,225	14735,14
655,417	14212,9
655,61	14034,73
655,802	13727,53
655,994	13580,08
656,186	13668,14
656,379	13840,17
656,571	14053,16
656,763	13977,39
656,955	14126,89
657,148	14511,91
657,34	14423,84
657,532	14448,42
657,724	14698,27
657,916	14829,34
658,108	14831,39
658,3	14825,25
658,492	14741,28
658,684	14769,95
658,876	14925,6
659,068	14696,22
659,26	15058,71
659,452	15148,82
659,644	15140,63
659,836	15130,39
660,028	15066,91
660,22	15085,34
660,412	15136,54
660,604	14671,65
660,796	15023,9
660,988	15114,01
661,18	15007,51
661,372	14780,19
661,563	15226,65
661,755	15253,27
661,947	15304,47
662,139	14804,77
662,331	15126,3
662,522	14841,63
662,714	14941,98
662,906	14753,57
663,097	14511,91
663,289	14495,52
663,481	14806,81
663,673	14700,32
663,864	14587,68
664,056	14499,62
664,247	14638,88
664,439	14640,93
664,631	14726,94
664,822	14671,65
665,014	14685,98
665,205	14538,53
665,397	14532,39
665,588	14421,8
665,78	14522,15
665,971	14378,79
666,163	14452,52
666,354	14372,64
666,546	14446,37
666,737	14405,41
666,929	14382,88
667,12	14442,28
667,311	14436,13
667,503	14059,31
667,694	14309,16
667,885	14307,11
668,077	14339,88
668,268	13881,13
668,459	14354,21
668,651	14051,11
668,842	14278,44
669,033	14313,25
669,224	14059,31
669,416	13905,71
669,607	13999,91
669,798	13799,21
669,989	14188,33
670,18	13864,75
670,371	13831,98
670,563	13786,93
670,754	13567,79
670,945	13551,41
671,136	13946,67
671,327	13766,45
671,518	13555,51
671,709	13995,82
671,9	13836,08
672,091	13530,93
672,282	13682,48
672,473	13406
672,664	13866,8
672,855	13451,06
673,046	13582,13
673,237	13399,86
673,428	13498,16
673,619	13444,91
673,809	13381,43
674	13264,69
674,191	13373,24
674,382	13188,92
674,573	13150,01
674,764	13225,78
674,954	13276,98
675,145	13094,71
675,336	13223,73
675,527	13197,11
675,717	13408,05
675,908	13139,77
676,099	13203,25
676,289	13016,89
676,48	13002,55
676,671	13014,84
676,861	13037,37
677,052	12869,44
677,243	12760,89
677,433	12957,5
677,624	13045,56
677,814	12904,25
678,005	12857,15
678,195	12898,11
678,386	13088,57
678,576	12986,17
678,767	12742,46
678,957	13012,79
679,148	12906,3
679,338	12846,91
679,529	12799,8
679,719	12715,84
679,909	12764,99
680,1	12633,92
680,29	12627,78
680,481	12709,69
680,671	12691,26
680,861	12486,47
681,052	12687,17
681,242	12515,14
681,432	12750,65
681,622	12439,36
681,813	12396,35
682,003	12588,86
682,193	12306,24
682,383	12504,9
682,573	12521,28
682,764	12441,41
682,954	12334,92
683,144	12281,67
683,334	12506,95
683,524	12242,76
683,714	12175,17
683,904	11990,86
684,094	12304,2
684,284	11906,89
684,474	12369,73
684,664	12103,5
684,854	12203,85
685,044	12345,16
685,234	11931,47
685,424	12017,48
685,614	12037,96
685,804	11900,75
685,994	11644,75
686,184	10948,44
686,374	10233,7
686,564	9512,81
686,753	9066,36
686,943	8478,59
687,133	8365,95
687,323	8177,54
687,513	8451,97
687,702	8544,13
687,892	8843,13
688,082	8681,34
688,272	8933,24
688,461	8843,13
688,651	8480,64
688,841	8431,49
689,03	8341,38
689,22	8329,09
689,41	8492,93
689,599	8519,55
689,789	8773,5
689,979	8834,94
690,168	8920,95
690,358	9054,07
690,547	9316,21
690,737	9480,05
690,926	9365,36
691,116	9332,59
691,305	9674,6
691,495	9588,59
691,684	9946,98
691,874	9914,22
692,063	9924,46
692,252	10008,42
692,442	10114,92
692,631	10069,86
692,82	10155,88
693,01	10057,57
693,199	10157,92
693,388	10176,36
693,578	10127,21
693,767	10338,15
693,956	10430,3
694,146	10469,22
694,335	10303,33
694,524	10387,3
694,713	10530,66
694,902	10325,86
695,092	10592,09
695,281	10332
695,47	10481,5
695,659	10432,35
695,848	10440,54
696,037	10436,45
696,226	10686,3
696,415	10553,18
696,604	10934,11
696,793	10540,9
696,982	10698,59
697,171	10862,43
697,36	10762,08
697,549	10264,42
697,738	10717,02
697,927	10430,3
698,116	10512,22
698,305	10375,01
698,494	10483,55
698,683	10674,01
698,872	10483,55
699,061	10356,58
699,25	10211,17
699,438	10362,72
699,627	10313,57
699,816	10377,06
700,005	10315,62
700,193	10192,74
700,382	10139,49
700,571	9916,26
700,76	10020,71
700,948	10188,64
701,137	10090,34
701,326	9930,6
701,514	10035,05
701,703	9977,7
701,892	9838,44
702,08	9899,88
702,269	9865,07
702,457	9856,87
702,646	9729,9
702,834	9914,22
703,023	9754,48
703,212	9770,86
703,4	9850,73
703,589	9985,9
703,777	9971,56
703,965	9670,51
704,154	10274,66
704,342	9875,31
704,531	10000,23
704,719	9688,94
704,907	10053,48
705,096	9781,1
705,284	9650,03
705,472	9879,4
705,661	9934,7
705,849	9906,02
706,037	9840,49
706,226	9578,35
706,414	9766,76
706,602	9885,55
706,79	9760,62
706,979	9793,39
707,167	9975,66
707,355	9555,82
707,543	9774,95
707,731	9803,63
707,919	9699,18
708,107	9768,81
708,296	9625,45
708,484	9557,87
708,672	9711,47
708,86	9645,93
709,048	9615,21
709,236	9586,54
709,424	9639,79
709,612	9594,73
709,8	9613,17
709,988	9529,2
710,176	9656,17
710,364	9734
710,551	9547,63
710,739	9324,4
710,927	9471,86
711,115	9367,41
711,303	9422,7
711,491	9381,74
711,679	9262,96
711,866	9410,42
712,054	9586,54
712,242	9111,41
712,43	9191,28
712,617	9473,9
712,805	9150,32
712,993	9273,2
713,181	9262,96
713,368	9217,91
713,556	9160,56
713,744	8902,52
713,931	9357,17
714,119	9021,3
714,306	9021,3
714,494	8898,42
714,682	9033,59
714,869	8787,83
715,057	8994,68
715,244	8744,83
715,432	8802,17
715,619	8763,26
715,807	8886,14
715,994	8726,39
716,182	8720,25
716,369	8445,82
716,556	8415,1
716,744	8193,92
716,931	8005,51
717,119	8114,05
717,306	7829,38
717,493	7759,75
717,681	7620,49
717,868	7382,93
718,055	7450,51
718,242	7190,42
718,43	7169,94
718,617	7124,88
718,804	6940,57
718,991	7018,39
719,179	7034,77
719,366	6813,59
719,553	6967,19
719,74	6719,39
719,927	6862,74
720,114	6756,25
720,301	6846,36
720,488	6795,16
720,676	6979,48
720,863	6991,77
721,05	7088,02
721,237	7407,5
721,424	7444,37
721,611	7628,68
721,798	7432,08
721,985	7477,13
722,172	7505,81
722,358	7401,36
722,545	7497,61
722,732	7464,85
722,919	7384,98
723,106	7335,82
723,293	7407,5
723,48	7135,12
723,667	6940,57
723,853	6881,17
724,04	6934,42
724,227	6995,86
724,414	6948,76
724,6	7036,82
724,787	7085,97
724,974	6868,89
725,161	6930,33
725,347	6743,96
725,534	6891,41
725,72	6938,52
725,907	6985,62
726,094	7063,44
726,28	6836,12
726,467	6709,15
726,653	6801,3
726,84	6817,69
727,027	7118,74
727,213	6502,3
727,4	6848,41
727,586	6631,32
727,773	6719,39
727,959	6713,24
728,145	6741,91
728,332	6637,47
728,518	6668,19
728,705	6827,93
728,891	6604,7
729,077	6582,17
729,264	6614,94
729,45	6455,2
729,636	6832,02
729,823	6424,48
730,009	6676,38
730,195	6610,84
730,382	6711,19
730,568	6649,75
730,754	6686,62
730,94	6705,05
731,126	6655,9
731,313	6639,51
731,499	6557,6
731,685	6750,1
731,871	6639,51
732,057	6700,95
732,243	6776,73
732,429	6750,1
732,615	6842,26
732,801	6807,45
732,987	6858,65
733,173	6897,56
733,359	6858,65
733,545	6983,57
733,731	6913,94
733,917	6967,19
734,103	6985,62
734,289	7047,06
734,475	7008,15
734,661	7020,44
734,847	7008,15
735,033	6981,53
735,219	6975,38
735,404	6897,56
735,59	6987,67
735,776	6911,89
735,962	6965,14
736,148	6956,95
736,333	6934,42
736,519	6844,31
736,705	6915,99
736,89	6811,54
737,076	6893,46
737,262	6655,9
737,447	6793,11
737,633	6776,73
737,819	6942,61
738,004	6797,21
738,19	6961,05
738,375	6696,86
738,561	6811,54
738,747	6735,77
738,932	6700,95
739,118	6881,17
739,303	6668,19
739,489	6567,84
739,674	6533,02
739,859	6582,17
740,045	6805,4
740,23	6580,12
740,416	6514,59
740,601	6522,78
740,786	6475,68
740,972	6516,64
741,157	6539,16
741,342	6412,19
741,528	6459,29
741,713	6565,79
741,898	6461,34
742,084	6533,02
742,269	6320,03
742,454	6414,24
742,639	6567,84
742,824	6358,94
743,01	6512,54
743,195	6483,87
743,38	6453,15
743,565	6336,42
743,75	6412,19
743,935	6481,82
744,12	6598,56
744,305	6242,21
744,49	6295,46
744,675	6231,97
744,86	6240,16
745,045	6172,58
745,23	6348,7
745,415	6410,14
745,6	6426,53
745,785	6391,71
745,97	6408,09
746,155	6240,16
746,34	6334,37
746,525	6277,02
746,71	6313,89
746,895	6164,39
747,079	6281,12
747,264	6301,6
747,449	6092,71
747,634	6139,81
747,819	6145,95
748,003	6088,61
748,188	6018,98
748,373	6025,12
748,557	6113,19
748,742	5918,63
748,927	6072,23
749,111	6150,05
749,296	5961,64
749,481	6016,93
749,665	5912,49
749,85	5875,62
750,034	6027,17
750,219	5814,18
750,404	5910,44
750,588	6008,74
750,773	5705,64
750,957	5758,89
751,141	5767,08
751,326	5717,93
751,51	5842,85
751,695	5693,35
751,879	5789,61
752,064	5588,91
752,248	5722,02
752,432	5629,87
752,617	5724,07
752,801	5593
752,985	5683,11
753,17	5611,43
753,354	5707,69
753,538	5793,7
753,722	5730,22
753,907	5558,19
754,091	5703,59
754,275	5638,06
754,459	5570,47
754,643	5599,15
754,828	5697,45
755,012	5511,08
755,196	5615,53
755,38	5584,81
755,564	5478,32
755,748	5607,34
755,932	5515,18
756,116	5326,77
756,3	5363,63
756,484	5345,2
756,668	5429,17
756,852	5369,77
757,036	5595,05
757,22	5261,23
757,404	5298,1
757,588	5302,19
757,772	5205,94
757,956	5375,92
758,14	5201,84
758,323	5234,61
758,507	5275,57
758,691	5171,12
758,875	5203,89
759,059	5021,62
759,242	4712,38
759,426	4263,87
759,61	3829,7
759,794	3422,16
759,977	2873,3
760,161	2629,59
760,345	2224,09
760,528	1761,25
760,712	1548,26
760,895	1372,14
761,079	1294,32
761,263	1105,9
761,446	1161,2
761,63	1202,16
761,813	1476,59
761,997	1544,17
762,18	1642,47
762,364	1624,04
762,547	1472,49
762,731	1452,01
762,914	1351,66
763,098	1189,87
763,281	1087,47
763,464	1234,93
763,648	1286,12
763,831	1171,44
764,015	1206,25
764,198	1425,39
764,381	1353,71
764,564	1554,41
764,748	1568,74
764,931	1744,87
765,114	1976,29
765,297	2039,78
765,481	2168,8
765,664	2265,05
765,847	2381,79
766,03	2627,54
766,213	2742,23
766,397	2764,76
766,58	3024,85
766,763	3123,15
766,946	3405,77
767,129	3325,9
767,312	3626,95
767,495	3747,78
767,678	3889,09
767,861	4032,45
768,044	4222,91
768,227	4364,22
768,41	4366,27
768,593	4462,52
768,776	4495,29
768,959	4675,51
769,142	4818,87
769,324	4720,57
769,507	4921,27
769,69	4915,12
769,873	5015,48
770,056	4898,74
770,239	5121,97
770,421	5054,39
770,604	5328,81
770,787	5115,83
770,97	5267,38
771,152	5232,56
771,335	5281,71
771,518	5142,45
771,7	5271,47
771,883	5173,17
772,066	5304,24
772,248	5390,25
772,431	5410,73
772,613	5404,59
772,796	5339,05
772,978	5408,69
773,161	5459,88
773,343	5244,85
773,526	5326,77
773,708	5390,25
773,891	5404,59
774,073	5425,07
774,256	5550
774,438	5377,97
774,621	5369,77
774,803	5326,77
774,985	5156,79
775,168	5474,22
775,35	5101,49
775,532	5347,25
775,715	5521,32
775,897	5285,81
776,079	5410,73
776,261	5517,23
776,444	5398,45
776,626	5224,37
776,808	5506,99
776,99	5324,72
777,173	5347,25
777,355	5148,59
777,537	5210,03
777,719	5261,23
777,901	5353,39
778,083	5164,98
778,265	5234,61
778,447	5259,18
778,629	5384,11
778,811	5230,51
778,993	5296,05
779,175	5263,28
779,357	5296,05
779,539	5109,68
779,721	5275,57
779,903	5115,83
780,085	5312,43
780,267	5023,67
780,449	5384,11
780,631	5105,59
780,812	5029,81
780,994	5148,59
781,176	5052,34
781,358	5101,49
781,54	5021,62
781,721	4886,45
781,903	5048,24
782,085	5048,24
782,267	5164,98
782,448	4982,71
782,63	5058,48
782,812	4927,41
782,993	4857,78
783,175	5035,96
783,357	4919,22
783,538	4851,64
783,72	4710,33
783,901	4896,69
784,083	4657,08
784,264	4792,25
784,446	4706,23
784,627	4624,31
784,809	4796,34
784,99	4769,72
785,172	4853,69
785,353	4661,18
785,535	4700,09
785,716	4659,13
785,897	4661,18
786,079	4636,6
786,26	4724,66
786,441	4571,07
786,623	4661,18
786,804	4415,42
786,985	4581,31
787,167	4532,15
787,348	4452,28
787,529	4505,53
787,71	4468,67
787,891	4394,94
788,073	4306,88
788,254	4321,21
788,435	4499,39
788,616	4399,04
788,797	4302,78
788,978	4341,69
789,159	4165,57
789,34	4278,21
789,522	4167,62
789,703	4204,48
789,884	4063,17
790,065	4073,41
790,246	4089,79
790,427	4081,6
790,607	4339,65
790,788	4061,12
790,969	4063,17
791,15	4067,27
791,331	4073,41
791,512	3864,52
791,693	4011,97
791,874	4026,31
792,054	3987,4
792,235	4026,31
792,416	3903,43
792,597	3938,24
792,778	3909,57
792,958	3942,34
793,139	3821,51
793,32	3876,8
793,5	3864,52
793,681	3753,93
793,862	3778,5
794,042	3829,7
794,223	3704,78
794,404	3749,83
794,584	3710,92
794,765	3489,74
794,945	3655,62
795,126	3731,4
795,306	3794,89
795,487	3655,62
795,667	3669,96
795,848	3743,69
796,028	3741,64
796,209	3678,15
796,389	3745,73
796,57	3426,25
796,75	3678,15
796,93	3553,23
797,111	3573,71
797,291	3555,27
797,471	3633,1
797,652	3680,2
797,832	3764,17
798,012	3684,3
798,192	3588,04
798,373	3526,6
798,553	3626,95
798,733	3407,82
798,913	3432,4
799,093	3502,03
799,274	3487,69
799,454	3547,08
799,634	3526,6
799,814	3512,27
799,994	3518,41
800,174	3391,44
800,354	3598,28
800,534	3356,62
800,714	3366,86
800,894	3239,89
801,074	3323,85
801,254	3237,84
801,434	3393,48
801,614	3350,48
801,794	3370,96
801,974	3893,19
802,154	3319,76
802,334	3295,18
802,514	3237,84
802,693	3305,42
802,873	3235,79
803,053	3114,96
803,233	3262,41
803,413	3162,06
803,592	3117,01
803,772	3213,26
803,952	3235,79
804,131	3198,93
804,311	3117,01
804,491	3149,78
804,67	3170,26
804,85	3114,96
805,03	3180,5
805,209	3145,68
805,389	3137,49
805,568	3157,97
805,748	3121,1
805,928	3078,1
806,107	3276,75
806,287	3102,67
806,466	3114,96
806,646	3139,54
806,825	3022,8
807,004	3143,63
807,184	3010,51
807,363	3030,99
807,543	3108,82
807,722	2916,31
807,901	3094,48
808,081	3131,34
808,26	2926,55
808,439	2922,45
808,619	3082,19
808,798	3014,61
808,977	2858,96
809,156	2987,99
809,336	2987,99
809,515	2926,55
809,694	2846,68
809,873	2852,82
810,052	2977,75
810,231	2766,81
810,411	2775
810,59	2871,25
810,769	2951,12
810,948	2801,62
811,127	2721,75
811,306	2760,66
811,485	2713,56
811,664	2852,82
811,843	2789,33
812,022	2713,56
812,201	2688,98
812,38	2678,74
812,559	2674,65
812,737	2588,63
812,916	2607,06
813,095	2547,67
813,274	2625,5
813,453	2449,37
813,632	2514,91
813,811	2607,06
813,989	2459,61
814,168	2523,1
814,347	2385,88
814,526	2492,38
814,704	2443,23
814,883	2312,16
815,062	2308,06
815,24	2369,5
815,419	2353,12
815,598	2375,64
815,776	2197,47
815,955	2201,57
816,133	2254,81
816,312	2107,36
816,49	2090,98
816,669	2142,18
816,847	2037,73
817,026	2129,89
817,204	2054,11
817,383	2025,44
817,561	2084,83
817,74	2131,94
817,918	2054,11
818,097	2013,15
818,275	1943,52
818,453	2117,6
818,632	2025,44
818,81	2009,06
818,988	1996,77
819,167	2068,45
819,345	2103,26
819,523	2078,69
819,701	2013,15
819,879	1992,67
820,058	2066,4
820,236	2025,44
820,414	1990,63
820,592	1972,19
820,77	2117,6
820,948	2088,93
821,127	2111,46
821,305	2133,98
821,483	2164,7
821,661	2170,85
821,839	2273,25
822,017	2179,04
822,195	2144,22
822,373	2050,02
822,551	2074,59
822,729	2054,11
822,907	1949,67
823,085	1890,28
823,262	1843,17
823,44	1650,66
823,618	1761,25
823,796	1820,64
823,974	1720,29
824,152	1671,14
824,329	1964
824,507	1839,08
824,685	2000,87
824,863	1976,29
825,04	1994,72
825,218	2031,58
825,396	1998,82
825,574	2058,21
825,751	1996,77
825,929	2021,35
826,107	2009,06
826,284	1998,82
826,462	1941,47
826,639	2011,11
826,817	1978,34
826,994	1945,57
827,172	2107,36
827,349	2023,39
827,527	2174,94
827,704	1933,28
827,882	1929,19
828,059	1982,43
828,237	1767,4
828,414	1898,47
828,591	1769,44
828,769	1910,75
828,946	1796,07
829,124	1961,95
829,301	1847,27
829,478	1794,02
829,655	1730,53
829,833	1843,17
830,01	1736,68
830,187	1816,55
830,364	1794,02
830,542	1736,68
830,719	1873,89
830,896	1755,11
831,073	1972,19
831,25	1900,51
831,427	1765,35
831,604	1804,26
831,782	1742,82
831,959	1748,97
832,136	1886,18
832,313	1880,04
832,49	1648,61
832,667	1744,87
832,844	1710,05
833,021	1851,36
833,198	1753,06
833,374	1697,77
833,551	1683,43
833,728	1716,2
833,905	1814,5
834,082	1695,72
834,259	1728,49
834,436	1746,92
834,612	1705,96
834,789	1667,05
834,966	1769,44
835,143	1705,96
835,319	1720,29
835,496	1830,88
835,673	1781,73
835,85	1662,95
836,026	1716,2
836,203	1748,97
836,38	1624,04
836,556	1628,14
836,733	1665
836,909	1746,92
837,086	1558,5
837,262	1693,67
837,439	1656,81
837,616	1644,52
837,792	1587,18
837,968	1675,24
838,145	1566,7
838,321	1636,33
838,498	1736,68
838,674	1699,81
838,851	1734,63
839,027	1550,31
839,203	1542,12
839,38	1693,67
839,556	1638,37
839,732	1705,96
839,909	1628,14
840,085	1656,81
840,261	1484,78
840,437	1646,57
840,614	1740,77
840,79	1581,03
840,966	1615,85
841,142	1617,9
841,318	1591,27
841,494	1583,08
841,671	1566,7
841,847	1648,61
842,023	1564,65
842,199	1683,43
842,375	1665
842,551	1470,44
842,727	1542,12
842,903	1615,85
843,079	1632,23
843,255	1556,46
843,431	1591,27
843,607	1578,98
843,783	1476,59
843,959	1574,89
844,134	1542,12
844,31	1501,16
844,486	1423,34
844,662	1447,91
844,838	1507,3
845,013	1574,89
845,189	1572,84
845,365	1503,21
845,541	1560,55
845,716	1531,88
845,892	1527,78
846,068	1419,24
846,244	1505,26
846,419	1441,77
846,595	1439,72
846,77	1355,76
846,946	1511,4
847,122	1386,47
847,297	1390,57
847,473	1472,49
847,648	1386,47
847,824	1433,58
847,999	1392,62
848,175	1337,32
848,35	1413,1
848,526	1390,57
848,701	1452,01
848,876	1378,28
849,052	1490,92
849,227	1337,32
849,403	1335,28
849,578	1398,76
849,753	1343,47
849,929	1400,81
850,104	1357,8
850,279	1150,96
850,454	1222,64
850,63	1310,7
850,805	1296,36
850,98	1236,97
851,155	1200,11
851,33	1337,32
851,505	1241,07
851,681	1427,43
851,856	1288,17
852,031	1253,36
852,206	1265,64
852,381	1200,11
852,556	1296,36
852,731	1193,97
852,906	1222,64
853,081	1243,12
853,256	1290,22
853,431	1345,52
853,606	1261,55
853,781	1247,21
853,956	1107,95
854,131	1230,83
854,305	1134,57
854,48	1085,42
854,655	1026,03
854,83	1081,33
855,005	1056,75
855,18	1026,03
855,354	868,34
855,529	995,31
855,704	1026,03
855,879	1110
856,053	1042,42
856,228	1060,85
856,403	1060,85
856,577	1138,67
856,752	1077,23
856,926	1161,2
857,101	1095,66
857,276	1157,1
857,45	1140,72
857,625	1148,91
857,799	1153,01
857,974	1157,1
858,148	1071,09
858,323	1050,61
858,497	1093,62
858,672	1128,43
858,846	1066,99
859,02	1132,53
859,195	1167,34
859,369	1101,81
859,543	1071,09
859,718	1056,75
859,892	1140,72
860,066	1165,29
860,241	1114,09
860,415	1054,7
860,589	1110
860,763	1079,28
860,938	1128,43
861,112	1101,81
861,286	1011,7
861,46	1101,81
861,634	1091,57
861,808	1083,38
861,982	1034,22
862,157	1062,9
862,331	978,93
862,505	1011,7
862,679	925,68
862,853	923,63
863,027	1028,08
863,201	1023,98
863,375	921,59
863,549	1007,6
863,722	995,31
863,896	983,02
864,07	929,78
864,244	1013,74
864,418	993,26
864,592	1003,5
864,766	946,16
864,939	913,39
865,113	1009,65
865,287	1056,75
865,461	929,78
865,634	940,02
865,808	978,93
865,982	884,72
866,156	837,62
866,329	821,24
866,503	880,63
866,676	763,89
866,85	827,38
867,024	788,47
867,197	880,63
867,371	911,35
867,544	831,48
867,718	757,75
867,891	933,87
868,065	811
868,238	819,19
868,412	845,81
868,585	829,43
868,759	892,91
868,932	917,49
869,105	888,82
869,279	858,1
869,452	835,57
869,625	888,82
869,799	790,52
869,972	780,28
870,145	755,7
870,319	901,11
870,492	800,76
870,665	909,3
870,838	827,38
871,011	765,94
871,185	849,91
871,358	774,13
871,531	858,1
871,704	819,19
871,877	911,35
872,05	835,57
872,223	829,43
872,396	886,77
872,569	827,38
872,742	790,52
872,915	833,52
873,088	829,43
873,261	729,08
873,434	841,72
873,607	761,84
873,78	765,94
873,953	788,47
874,126	878,58
874,299	751,6
874,471	800,76
874,644	776,18
874,817	792,56
874,99	874,48
875,163	739,32
875,335	817,14
875,508	811
875,681	804,85
875,853	686,07
876,026	759,8
876,199	782,32
876,371	722,93
876,544	733,17
876,717	692,21
876,889	706,55
877,062	770,04
877,234	716,79
877,407	702,45
877,579	729,08
877,752	669,69
877,924	727,03
878,097	708,6
878,269	743,41
878,442	776,18
878,614	661,49
878,786	669,69
878,959	700,41
879,131	690,17
879,303	694,26
879,476	655,35
879,648	794,61
879,82	704,5
879,993	632,82
880,165	700,41
880,337	548,86
880,509	710,65
880,681	641,01
880,854	737,27
881,026	708,6
881,198	667,64
881,37	677,88
881,542	628,73
881,714	641,01
881,886	628,73
882,058	729,08
882,23	634,87
882,402	671,73
882,574	628,73
882,746	651,25
882,918	673,78
883,09	641,01
883,262	577,53
883,434	628,73
883,606	536,57
883,778	659,45
883,95	706,55
884,122	681,97
884,293	657,4
884,465	677,88
884,637	587,77
884,809	620,53
884,98	638,97
885,152	684,02
885,324	673,78
885,496	692,21
885,667	638,97
885,839	585,72
886,011	684,02
886,182	638,97
886,354	608,25
886,525	542,71
886,697	569,34
886,869	552,95
887,04	555
887,212	679,93
887,383	544,76
887,555	522,23
887,726	577,53
887,897	520,18
888,069	600,05
888,24	589,81
888,412	534,52
888,583	495,61
888,754	585,72
888,926	509,94
889,097	528,38
889,268	481,27
889,44	552,95
889,611	593,91
889,782	471,03
889,953	518,14
890,125	618,49
890,296	442,36
890,467	542,71
890,638	612,34
890,809	569,34
890,98	534,52
891,151	573,43
891,323	509,94
891,494	563,19
891,665	425,98
891,836	530,42
892,007	446,46
892,178	520,18
892,349	475,13
892,52	487,42
892,691	534,52
892,862	432,12
893,032	518,14
893,203	462,84
893,374	481,27
893,545	475,13
893,716	405,5
893,887	514,04
894,057	436,22
894,228	471,03
894,399	428,03
894,57	450,55
894,74	442,36
894,911	483,32
895,082	348,15
895,253	425,98
895,423	497,66
895,594	450,55
895,764	446,46
895,935	419,83
896,106	436,22
896,276	411,64
896,447	417,79
896,617	421,88
896,788	362,49
896,958	395,26
897,129	327,67
897,299	382,97
897,47	411,64
897,64	370,68
897,81	368,63
897,981	362,49
898,151	337,91
898,322	395,26
898,492	407,55
898,662	358,39
898,832	518,14
899,003	266,24
899,173	348,15
899,343	421,88
899,513	266,24
