Data from atmo_200_USB4F104151__2__16-41-44-646.txt Node

Date: Thu Mar 07 16:41:44 EST 2024
User: lauri
Spectrometer: USB4F10415
Trigger mode: 4
Integration Time (sec): 2,000000E-1
Scans to average: 1
Electric dark correction enabled: true
Nonlinearity correction enabled: false
Boxcar width: 0
XAxis mode: Wavelengths
Number of Pixels in Spectrum: 3648
>>>>>Begin Spectral Data<<<<<
178,204	-90,96
178,424	-90,96
178,644	-90,96
178,864	-101,2
179,084	-181,07
179,304	-23,38
179,524	-17,24
179,744	-9,05
179,964	-39,76
180,184	95,4
180,404	-2,9
180,624	11,43
180,844	-25,43
181,064	-29,52
181,283	5,29
181,503	-23,38
181,723	58,54
181,943	54,44
182,163	115,88
182,383	97,45
182,602	156,84
182,822	146,6
183,042	48,3
183,262	54,44
183,482	95,4
183,701	132,26
183,921	23,72
184,141	9,39
184,361	134,31
184,58	95,4
184,8	91,31
185,02	56,49
185,239	162,98
185,459	85,16
185,679	142,5
185,898	79,02
186,118	142,5
186,338	27,82
186,557	136,36
186,777	115,88
186,997	81,07
187,216	97,45
187,436	265,38
187,655	70,83
187,875	99,5
188,095	99,5
188,314	95,4
188,534	91,31
188,753	54,44
188,973	103,59
189,192	181,42
189,412	158,89
189,631	148,65
189,851	81,07
190,07	126,12
190,29	122,02
190,509	66,73
190,729	85,16
190,948	199,85
191,168	230,57
191,387	162,98
191,607	58,54
191,826	58,54
192,045	85,16
192,265	124,07
192,484	119,98
192,704	83,11
192,923	81,07
193,142	208,04
193,362	191,66
193,581	79,02
193,8	138,41
194,02	74,92
194,239	171,18
194,458	68,78
194,678	60,59
194,897	146,6
195,116	40,11
195,335	99,5
195,555	83,11
195,774	122,02
195,993	165,03
196,212	58,54
196,432	91,31
196,651	60,59
196,87	91,31
197,089	249
197,308	56,49
197,528	109,74
197,747	97,45
197,966	50,35
198,185	119,98
198,404	138,41
198,623	107,69
198,842	146,6
199,062	103,59
199,281	97,45
199,5	50,35
199,719	76,97
199,938	140,46
200,157	119,98
200,376	173,22
200,595	115,88
200,814	62,63
201,033	74,92
201,252	203,94
201,471	158,89
201,69	122,02
201,909	134,31
202,128	132,26
202,347	60,59
202,566	58,54
202,785	103,59
203,004	76,97
203,223	177,32
203,442	99,5
203,661	38,06
203,879	111,78
204,098	162,98
204,317	58,54
204,536	113,83
204,755	81,07
204,974	101,55
205,193	105,64
205,411	140,46
205,63	185,51
205,849	130,22
206,068	105,64
206,287	132,26
206,505	68,78
206,724	138,41
206,943	70,83
207,162	74,92
207,381	107,69
207,599	142,5
207,818	117,93
208,037	165,03
208,255	58,54
208,474	52,39
208,693	140,46
208,911	38,06
209,13	72,87
209,349	111,78
209,567	138,41
209,786	56,49
210,005	36,01
210,223	105,64
210,442	134,31
210,661	156,84
210,879	175,27
211,098	105,64
211,316	97,45
211,535	179,37
211,753	115,88
211,972	162,98
212,191	124,07
212,409	177,32
212,628	56,49
212,846	68,78
213,065	140,46
213,283	148,65
213,502	169,13
213,72	124,07
213,938	105,64
214,157	74,92
214,375	140,46
214,594	134,31
214,812	195,75
215,031	175,27
215,249	99,5
215,467	103,59
215,686	148,65
215,904	105,64
216,122	148,65
216,341	117,93
216,559	134,31
216,778	62,63
216,996	117,93
217,214	150,7
217,432	81,07
217,651	95,4
217,869	97,45
218,087	95,4
218,306	44,2
218,524	144,55
218,742	91,31
218,96	117,93
219,179	107,69
219,397	105,64
219,615	146,6
219,833	162,98
220,051	185,51
220,27	124,07
220,488	113,83
220,706	91,31
220,924	99,5
221,142	128,17
221,36	72,87
221,578	15,53
221,796	169,13
222,015	91,31
222,233	48,3
222,451	130,22
222,669	119,98
222,887	146,6
223,105	122,02
223,323	81,07
223,541	54,44
223,759	156,84
223,977	87,21
224,195	144,55
224,413	105,64
224,631	165,03
224,849	93,35
225,067	214,18
225,285	70,83
225,503	27,82
225,721	87,21
225,939	38,06
226,157	126,12
226,375	203,94
226,592	72,87
226,81	132,26
227,028	193,7
227,246	195,75
227,464	87,21
227,682	197,8
227,9	132,26
228,117	107,69
228,335	140,46
228,553	109,74
228,771	111,78
228,989	142,5
229,206	132,26
229,424	72,87
229,642	48,3
229,86	134,31
230,077	109,74
230,295	91,31
230,513	119,98
230,731	119,98
230,948	136,36
231,166	230,57
231,384	101,55
231,601	189,61
231,819	87,21
232,037	126,12
232,254	95,4
232,472	97,45
232,689	38,06
232,907	146,6
233,125	193,7
233,342	105,64
233,56	64,68
233,777	68,78
233,995	152,74
234,213	115,88
234,43	74,92
234,648	81,07
234,865	89,26
235,083	119,98
235,3	64,68
235,518	138,41
235,735	203,94
235,953	177,32
236,17	134,31
236,388	95,4
236,605	146,6
236,822	156,84
237,04	124,07
237,257	74,92
237,475	99,5
237,692	128,17
237,909	124,07
238,127	48,3
238,344	87,21
238,562	113,83
238,779	79,02
238,996	38,06
239,214	130,22
239,431	122,02
239,648	138,41
239,865	117,93
240,083	103,59
240,3	27,82
240,517	74,92
240,735	83,11
240,952	230,57
241,169	156,84
241,386	113,83
241,603	126,12
241,821	79,02
242,038	46,25
242,255	70,83
242,472	83,11
242,689	179,37
242,907	136,36
243,124	144,55
243,341	138,41
243,558	83,11
243,775	111,78
243,992	81,07
244,209	189,61
244,426	187,56
244,643	113,83
244,86	81,07
245,078	160,94
245,295	185,51
245,512	124,07
245,729	134,31
245,946	119,98
246,163	97,45
246,38	113,83
246,597	66,73
246,814	130,22
247,031	95,4
247,248	99,5
247,464	113,83
247,681	122,02
247,898	162,98
248,115	136,36
248,332	138,41
248,549	111,78
248,766	195,75
248,983	179,37
249,2	228,52
249,417	124,07
249,633	64,68
249,85	138,41
250,067	169,13
250,284	179,37
250,501	156,84
250,717	97,45
250,934	68,78
251,151	105,64
251,368	79,02
251,585	128,17
251,801	68,78
252,018	115,88
252,235	230,57
252,451	79,02
252,668	25,77
252,885	167,08
253,102	107,69
253,318	70,83
253,535	179,37
253,752	140,46
253,968	156,84
254,185	89,26
254,401	148,65
254,618	175,27
254,835	111,78
255,051	218,28
255,268	101,55
255,484	87,21
255,701	62,63
255,917	175,27
256,134	124,07
256,351	148,65
256,567	156,84
256,784	148,65
257	89,26
257,217	111,78
257,433	130,22
257,65	91,31
257,866	152,74
258,082	87,21
258,299	85,16
258,515	173,22
258,732	136,36
258,948	42,15
259,165	111,78
259,381	19,63
259,597	132,26
259,814	101,55
260,03	113,83
260,246	111,78
260,463	179,37
260,679	212,14
260,895	72,87
261,112	115,88
261,328	81,07
261,544	140,46
261,761	238,76
261,977	107,69
262,193	117,93
262,409	99,5
262,626	171,18
262,842	87,21
263,058	93,35
263,274	109,74
263,49	126,12
263,707	134,31
263,923	109,74
264,139	119,98
264,355	93,35
264,571	167,08
264,787	212,14
265,004	81,07
265,22	124,07
265,436	85,16
265,652	83,11
265,868	93,35
266,084	-0,85
266,3	148,65
266,516	128,17
266,732	201,9
266,948	173,22
267,164	79,02
267,38	189,61
267,596	162,98
267,812	175,27
268,028	138,41
268,244	46,25
268,46	138,41
268,676	124,07
268,892	177,32
269,108	95,4
269,324	89,26
269,54	-2,9
269,756	162,98
269,972	105,64
270,188	70,83
270,403	87,21
270,619	117,93
270,835	91,31
271,051	97,45
271,267	113,83
271,483	15,53
271,698	128,17
271,914	191,66
272,13	111,78
272,346	113,83
272,562	60,59
272,777	144,55
272,993	177,32
273,209	66,73
273,425	210,09
273,64	62,63
273,856	148,65
274,072	156,84
274,287	146,6
274,503	103,59
274,719	132,26
274,934	101,55
275,15	58,54
275,366	173,22
275,581	97,45
275,797	97,45
276,012	156,84
276,228	93,35
276,444	99,5
276,659	154,79
276,875	85,16
277,09	105,64
277,306	68,78
277,521	156,84
277,737	111,78
277,952	177,32
278,168	93,35
278,383	85,16
278,599	87,21
278,814	185,51
279,03	95,4
279,245	263,33
279,461	122,02
279,676	128,17
279,892	54,44
280,107	46,25
280,322	124,07
280,538	169,13
280,753	158,89
280,969	173,22
281,184	111,78
281,399	152,74
281,615	132,26
281,83	238,76
282,045	115,88
282,26	128,17
282,476	130,22
282,691	138,41
282,906	132,26
283,122	177,32
283,337	187,56
283,552	101,55
283,767	132,26
283,983	169,13
284,198	195,75
284,413	115,88
284,628	58,54
284,843	83,11
285,058	187,56
285,274	150,7
285,489	107,69
285,704	81,07
285,919	101,55
286,134	181,42
286,349	113,83
286,564	109,74
286,779	201,9
286,995	128,17
287,21	54,44
287,425	160,94
287,64	64,68
287,855	156,84
288,07	99,5
288,285	187,56
288,5	212,14
288,715	230,57
288,93	210,09
289,145	97,45
289,36	177,32
289,575	33,96
289,79	214,18
290,004	140,46
290,219	191,66
290,434	167,08
290,649	76,97
290,864	60,59
291,079	138,41
291,294	173,22
291,509	72,87
291,724	144,55
291,938	130,22
292,153	173,22
292,368	154,79
292,583	95,4
292,798	148,65
293,012	136,36
293,227	79,02
293,442	171,18
293,657	173,22
293,871	193,7
294,086	152,74
294,301	173,22
294,516	253,09
294,73	189,61
294,945	175,27
295,16	150,7
295,374	150,7
295,589	148,65
295,804	162,98
296,018	177,32
296,233	236,71
296,447	154,79
296,662	154,79
296,877	167,08
297,091	142,5
297,306	152,74
297,52	115,88
297,735	201,9
297,949	130,22
298,164	140,46
298,378	107,69
298,593	107,69
298,807	154,79
299,022	177,32
299,236	232,62
299,451	154,79
299,665	152,74
299,88	124,07
300,094	122,02
300,309	156,84
300,523	175,27
300,737	175,27
300,952	224,42
301,166	169,13
301,381	72,87
301,595	76,97
301,809	140,46
302,024	109,74
302,238	68,78
302,452	201,9
302,667	154,79
302,881	142,5
303,095	230,57
303,309	107,69
303,524	162,98
303,738	218,28
303,952	132,26
304,166	148,65
304,381	97,45
304,595	167,08
304,809	173,22
305,023	156,84
305,237	160,94
305,452	242,85
305,666	140,46
305,88	242,85
306,094	195,75
306,308	181,42
306,522	210,09
306,736	195,75
306,95	287,91
307,164	242,85
307,379	171,18
307,593	306,34
307,807	306,34
308,021	255,14
308,235	277,67
308,449	285,86
308,663	240,81
308,877	423,08
309,091	408,74
309,305	378,02
309,519	394,4
309,733	435,36
309,947	421,03
310,161	423,08
310,374	494,76
310,588	464,04
310,802	439,46
311,016	504,99
311,23	640,16
311,444	556,19
311,658	599,2
311,872	738,46
312,085	734,37
312,299	826,53
312,513	812,19
312,727	779,42
312,941	857,25
313,154	982,17
313,368	955,55
313,582	924,83
313,796	1008,8
314,009	1150,11
314,223	1162,39
314,437	1270,94
314,651	1387,67
314,864	1279,13
315,078	1447,06
315,292	1561,75
315,505	1596,56
315,719	1752,21
315,933	1735,82
316,146	1924,24
316,36	2167,95
316,573	2331,78
316,787	2382,98
317,001	2436,23
317,214	2628,74
317,428	2759,81
317,641	2915,45
317,855	2886,78
318,068	3259,51
318,282	3290,23
318,495	3349,62
318,709	3349,62
318,922	3486,84
319,136	3519,6
319,349	3667,06
319,563	3640,44
319,776	3783,79
319,99	3675,25
320,203	3708,02
320,417	3845,23
320,63	4013,17
320,843	4088,94
321,057	4205,67
321,27	4490,34
321,483	4639,84
321,697	4832,35
321,91	4908,13
322,124	5119,07
322,337	5393,5
322,55	5700,69
322,763	5956,69
322,977	5780,56
323,19	6390,86
323,403	6689,86
323,617	6917,19
323,83	7291,96
324,043	7486,52
324,256	7578,68
324,469	8139,82
324,683	8205,36
324,896	8393,77
325,109	8479,79
325,322	8551,46
325,535	8715,3
325,748	8692,77
325,962	9032,74
326,175	9116,7
326,388	9266,21
326,601	9790,49
326,814	9778,2
327,027	10171,41
327,24	10318,86
327,453	10699,78
327,666	10695,69
327,879	10845,19
328,092	10867,72
328,305	10818,57
328,518	10912,77
328,731	10763,27
328,944	10796,04
329,157	10800,13
329,37	11103,23
329,583	11060,23
329,796	11289,6
330,009	10904,58
330,222	11353,09
330,435	11211,78
330,648	11248,64
330,861	11559,93
331,073	11338,75
331,286	11322,37
331,499	11328,51
331,712	11262,97
331,925	11564,03
332,138	11770,87
332,35	11844,6
332,563	11932,66
332,776	11863,03
332,989	11934,71
333,202	11895,8
333,414	11774,97
333,627	12053,49
333,84	11574,27
334,053	11346,94
334,265	11795,45
334,478	11508,73
334,691	11512,83
334,903	11289,6
335,116	11129,86
335,329	11580,41
335,541	11949,04
335,754	11469,82
335,966	11836,41
336,179	12250,1
336,392	12338,16
336,604	12319,73
336,817	12948,45
337,029	12930,02
337,242	13335,52
337,454	13337,57
337,667	13298,66
337,88	13595,61
338,092	13837,27
338,305	14021,59
338,517	13923,29
338,729	14105,56
338,942	13853,66
339,154	14187,47
339,367	14197,71
339,579	14513,1
339,792	14244,82
340,004	14412,75
340,217	14576,59
340,429	14279,63
340,641	14353,36
340,854	14513,1
341,066	14130,13
341,278	14226,39
341,491	14099,41
341,703	13960,15
341,915	13677,53
342,128	13689,82
342,34	13523,93
342,552	13382,62
342,764	13683,67
342,977	13734,87
343,189	13683,67
343,401	13767,64
343,613	14054,36
343,826	13986,77
344,038	14244,82
344,25	14291,92
344,462	14638,03
344,674	14386,13
344,886	14732,23
345,099	14562,25
345,311	14433,23
345,523	14678,99
345,735	14539,72
345,947	14785,48
346,159	14560,2
346,371	14586,83
346,583	14511,05
346,795	14877,64
347,007	14887,88
347,219	15217,6
347,431	15188,93
347,643	15358,91
347,855	15389,63
348,067	15604,67
348,279	16040,89
348,491	15811,51
348,703	16010,17
348,915	15985,59
349,127	16147,38
349,339	16298,93
349,551	16204,72
349,763	15967,16
349,975	15729,59
350,187	15852,47
350,399	16210,87
350,61	16028,6
350,822	16481,2
351,034	16473,01
351,246	16178,1
351,458	16620,46
351,669	16864,17
351,881	17075,11
352,093	17687,45
352,305	17757,08
352,517	17925,02
352,728	18267,03
352,94	18099,09
353,152	17564,57
353,363	17886,11
353,575	17404,83
353,787	17755,04
353,999	17210,28
354,21	16843,69
354,422	15997,88
354,633	16268,21
354,845	15774,65
355,057	15451,07
355,268	14799,82
355,48	14527,44
355,692	14316,5
355,903	14765
356,115	13972,44
356,326	14060,5
356,538	14138,32
356,749	14230,48
356,961	14818,25
357,172	14844,87
357,384	15430,59
357,595	16167,86
357,807	15969,21
358,018	16505,77
358,23	16536,49
358,441	16405,42
358,653	16403,38
358,864	16636,84
359,075	16884,65
359,287	16620,46
359,498	16833,45
359,709	16995,24
359,921	17028,01
360,132	17171,36
360,344	17568,67
360,555	17677,21
360,766	17982,36
360,977	18166,68
361,189	18031,51
361,4	18318,23
361,611	18316,18
361,823	18432,91
362,034	18963,34
362,245	19102,6
362,456	19065,74
362,667	19618,69
362,879	19796,86
363,09	20048,76
363,301	20884,33
363,512	21177,19
363,723	21259,11
363,935	21697,38
364,146	21887,84
364,357	22174,55
364,568	22371,16
364,779	22946,64
364,99	22772,56
365,201	22504,28
365,412	22569,81
365,623	22553,43
365,834	22422,36
366,045	22473,56
366,256	22311,77
366,467	22324,05
366,678	22668,11
366,889	22942,54
367,1	22387,54
367,311	22819,66
367,522	22711,12
367,733	23028,56
367,944	22993,74
368,155	23169,87
368,366	22623,06
368,577	22942,54
368,788	22729,55
368,999	23053,13
369,209	22790,99
369,42	22498,13
369,631	22586,19
369,842	22291,29
370,053	22145,88
370,264	21601,12
370,474	21308,26
370,685	21162,86
370,896	20323,19
371,107	20351,86
371,317	19714,94
371,528	19467,14
371,739	19180,42
371,95	19188,61
372,16	19143,56
372,371	18766,73
372,582	18801,55
372,792	19075,98
373,003	18969,48
373,214	19954,55
373,424	19596,16
373,635	19893,12
373,846	20358
374,056	20929,39
374,267	20677,49
374,477	20831,08
374,688	21736,29
374,898	22121,31
375,109	23022,41
375,319	23477,06
375,53	23896,89
375,74	24675,12
375,951	24556,34
376,161	24847,15
376,372	25475,88
376,582	24711,99
376,793	24691,51
377,003	24296,25
377,214	23970,62
377,424	24292,15
377,635	24378,17
377,845	23354,18
378,055	23399,24
378,266	24144,7
378,476	22866,77
378,686	23452,48
378,897	23194,44
379,107	23221,06
379,317	22657,87
379,528	22256,47
379,738	21738,33
379,948	20597,62
380,158	19981,18
380,369	19256,2
380,579	18604,94
380,789	17965,98
380,999	17490,85
381,21	17275,81
381,42	17023,91
381,63	17015,72
381,84	17284
382,05	17122,21
382,261	17062,82
382,471	17781,66
382,681	17796
382,891	18783,12
383,101	18895,75
383,311	19176,33
383,521	19411,84
383,731	19669,89
383,941	19549,06
384,151	19942,27
384,361	20560,75
384,571	20657,01
384,781	20257,65
384,991	20910,96
385,201	20274,04
385,411	20857,71
385,621	20751,21
385,831	20609,9
386,041	20632,43
386,251	20937,58
386,461	20726,64
386,671	21177,19
386,881	21125,99
387,091	21392,23
387,301	21560,16
387,511	22600,53
387,72	22805,33
387,93	23006,03
388,14	23077,71
388,35	24435,51
388,56	24687,41
388,769	24499
388,979	25152,3
389,189	25129,77
389,399	25334,57
389,609	25633,57
389,818	24941,36
390,028	24607,54
390,238	24030,01
390,447	23151,43
390,657	21394,28
390,867	20241,27
391,076	19049,35
391,286	18484,11
391,496	17392,55
391,705	17513,38
391,915	17791,9
392,125	17796
392,334	18158,49
392,544	18768,78
392,753	19135,37
392,963	20577,14
393,172	20898,67
393,382	21613,41
393,591	21588,83
393,801	21824,35
394,01	20882,28
394,22	21085,03
394,429	20913
394,639	19620,74
394,848	19471,23
395,058	19010,44
395,267	19477,38
395,477	19598,21
395,686	20898,67
395,895	21431,14
396,105	23126,86
396,314	23767,87
396,524	24937,26
396,733	25729,83
396,942	27570,95
397,152	28465,91
397,361	28637,94
397,57	29207,28
397,78	29264,62
397,989	30286,56
398,198	32291,52
398,407	32101,06
398,617	31951,56
398,826	33309,36
399,035	32082,63
399,244	32340,67
399,453	33100,47
399,663	34292,38
399,872	34058,91
400,081	34622,11
400,29	33639,08
400,499	34321,05
400,708	33628,84
400,917	34341,53
401,127	33622,7
401,336	33680,04
401,545	33491,63
401,754	33614,51
401,963	34337,44
402,172	33634,99
402,381	32469,69
402,59	34298,53
402,799	32987,83
403,008	33069,75
403,217	32727,74
403,426	33286,83
403,635	32062,15
403,844	32737,98
404,053	32893,62
404,262	32596,67
404,471	32324,29
404,68	32393,92
404,888	31367,88
405,097	31623,88
405,306	32285,37
405,515	32195,26
405,724	32316,09
405,933	33331,89
406,142	32823,99
406,35	32625,34
406,559	34654,87
406,768	34321,05
406,977	33936,04
407,185	34519,71
407,394	33737,38
407,603	33989,28
407,812	33383,09
408,02	33931,94
408,229	33090,23
408,438	32897,72
408,646	32752,31
408,855	32731,83
409,064	33174,19
409,272	33901,22
409,481	35138,19
409,69	34931,35
409,898	33952,42
410,107	35310,22
410,315	34198,18
410,524	35846,79
410,733	34826,9
410,941	34888,34
411,15	34396,83
411,358	34636,44
411,567	35469,97
411,775	35187,35
411,984	34730,65
412,192	35283,6
412,401	34910,87
412,609	35392,14
412,818	35230,35
413,026	35433,1
413,234	34888,34
413,443	35127,95
413,651	34884,25
413,86	34826,9
414,068	34960,02
414,276	35173,01
414,485	34337,44
414,693	34673,31
414,901	34726,55
415,11	35230,35
415,318	33692,33
415,526	34734,74
415,734	34054,82
415,943	34163,36
416,151	33557,16
416,359	33217,2
416,567	32715,45
416,776	32856,76
416,984	33493,68
417,192	33448,62
417,4	32359,1
417,608	32154,3
417,817	32613,05
418,025	32709,3
418,233	32905,91
418,441	32215,74
418,649	33125,04
418,857	34048,68
419,065	32934,58
419,273	33026,74
419,481	32776,89
419,689	34476,7
419,897	34009,76
420,105	34114,21
420,313	32991,92
420,521	32699,06
420,729	31642,31
420,937	32238,27
421,145	31521,48
421,353	32373,44
421,561	32400,06
421,769	32404,16
421,977	33098,42
422,185	31388,36
422,393	32438,97
422,601	33372,85
422,809	32082,63
423,017	31544,01
423,224	31734,47
423,432	32078,53
423,64	31271,63
423,848	32654,01
424,056	31034,07
424,263	32144,06
424,471	31644,36
424,679	31101,65
424,887	31492,81
425,094	32092,86
425,302	30640,86
425,51	31234,77
425,718	30487,26
425,925	30694,1
426,133	30708,44
426,341	31054,54
426,548	31216,33
426,756	30931,67
426,964	30059,23
427,171	31034,07
427,379	29876,96
427,586	29432,55
427,794	28736,24
428,001	29213,42
428,209	28324,6
428,417	26876,69
428,624	27214,6
428,832	26037,02
429,039	25826,08
429,247	25533,22
429,454	26618,64
429,662	28404,47
429,869	27384,58
430,076	29164,27
430,284	28070,65
430,491	29879,01
430,699	30845,65
430,906	30786,26
431,114	30720,73
431,321	31234,77
431,528	31226,57
431,736	32627,38
431,943	33557,16
432,15	31650,5
432,358	31437,51
432,565	32303,81
432,772	31632,07
432,979	32858,81
433,187	32623,29
433,394	32969,4
433,601	34333,34
433,808	34261,66
434,016	33446,57
434,223	34869,91
434,43	35904,13
434,637	35017,36
434,844	36866,68
435,052	36395,65
435,259	35721,87
435,466	35500,68
435,673	34091,68
435,88	35859,08
436,087	36063,88
436,294	35111,57
436,501	33282,73
436,708	32680,63
436,915	33518,25
437,122	34009,76
437,329	33120,95
437,537	33977
437,743	33702,57
437,95	33368,75
438,157	33985,19
438,364	35017,36
438,571	34704,03
438,778	33995,43
438,985	35758,73
439,192	34787,99
439,399	35836,55
439,606	34673,31
439,813	36326,02
440,02	37646,96
440,227	36833,91
440,433	36057,73
440,64	37108,34
440,847	36514,43
441,054	36448,89
441,261	37567,09
441,467	36567,68
441,674	36833,91
441,881	37450,35
442,088	37655,15
442,294	36557,44
442,501	37055,09
442,708	36614,78
442,914	37714,54
443,121	38402,66
443,328	36629,12
443,534	38636,13
443,741	36334,21
443,948	35136,15
444,154	36792,95
444,361	35723,91
444,568	35746,44
444,774	34712,22
444,981	34544,28
445,187	35562,12
445,394	36330,11
445,6	35527,31
445,807	38646,36
446,013	36579,96
446,22	36471,42
446,426	36969,08
446,633	37532,27
446,839	37735,02
447,046	36158,08
447,252	37350
447,459	37585,52
447,665	36616,83
447,871	37771,88
448,078	38558,3
448,284	36633,21
448,491	37546,61
448,697	38947,42
448,903	39098,97
449,11	38935,13
449,316	38070,89
449,522	38341,22
449,728	38926,94
449,935	39199,32
450,141	38537,82
450,347	39184,98
450,553	37192,31
450,76	37247,6
450,966	37462,64
451,172	36698,75
451,378	37034,61
451,584	36627,07
451,791	36199,04
451,997	36496
452,203	36967,03
452,409	36944,5
452,615	37268,08
452,821	35930,76
453,027	35277,46
453,233	37284,47
453,44	35508,88
453,646	36860,54
453,852	36534,91
454,058	37294,71
454,264	37247,6
454,47	38490,72
454,676	37612,14
454,882	38957,66
455,088	37028,47
455,294	37837,42
455,5	38335,07
455,705	38447,71
455,911	37892,71
456,117	37911,14
456,323	38169,19
456,529	36674,17
456,735	38201,96
456,941	37794,41
457,147	37671,53
457,352	37503,6
457,558	37175,92
457,764	37806,7
457,97	37919,34
458,176	37884,52
458,381	37802,6
458,587	37309,04
458,793	38423,14
458,999	37083,76
459,204	40462,91
459,41	40979
459,616	38476,38
459,821	39696,97
460,027	40026,7
460,233	40669,76
460,438	39469,65
460,644	40211,01
460,85	39653,97
461,055	40204,87
461,261	40915,51
461,466	38759
461,672	38562,4
461,878	41216,57
462,083	39379,54
462,289	38912,6
462,494	39615,05
462,7	38204
462,905	37782,12
463,111	39111,25
463,316	39879,24
463,522	40073,8
463,727	40587,84
463,932	41015,86
464,138	40976,95
464,343	41185,85
464,549	41095,74
464,754	42396,2
464,959	43149,85
465,165	42232,36
465,37	41222,71
465,575	41034,3
465,781	42535,46
465,986	43391,51
466,191	42361,38
466,397	42904,09
466,602	41120,31
466,807	42689,06
467,012	42582,56
467,218	43117,08
467,423	43719,18
467,628	44915,2
467,833	45799,92
468,038	44894,72
468,244	44454,4
468,449	45185,53
468,654	45134,33
468,859	44718,59
469,064	44323,33
469,269	43702,8
469,474	44900,86
469,679	45955,57
469,885	45316,6
470,09	46655,97
470,295	47333,85
470,5	47010,27
470,705	47233,5
470,91	46934,49
471,115	47571,41
471,32	48728,52
471,525	48493
471,73	48036,3
471,935	48867,78
472,139	48032,21
472,344	48519,62
472,549	49351,1
472,754	49623,48
472,959	50342,31
473,164	49271,23
473,369	49076,67
473,574	51165,6
473,778	51128,73
473,983	51130,78
474,188	52078,99
474,393	50407,85
474,598	51161,5
474,802	50543,02
475,007	51143,07
475,212	51810,71
475,417	51366,3
475,621	52191,63
475,826	52980,1
476,031	53148,03
476,235	53019,01
476,44	54307,18
476,645	53475,71
476,849	55040,35
477,054	55085,41
477,259	54724,97
477,463	55380,32
477,668	54641
477,872	56879,43
478,077	55980,37
478,282	56209,74
478,486	56588,62
478,691	56881,48
478,895	57151,81
479,1	56863,05
479,304	57360,7
479,509	57743,67
479,713	58274,1
479,918	58149,17
480,122	58040,63
480,326	58755,37
480,531	58929,45
480,735	58898,73
480,94	59240,74
481,144	60674,32
481,348	58876,2
481,553	59568,41
481,757	59019,56
481,961	60004,63
482,166	60158,23
482,37	60035,35
482,574	59128,1
482,778	60254,48
482,983	60483,86
483,187	59461,92
483,391	60250,39
483,595	59466,02
483,8	58528,05
484,004	57596,22
484,208	57526,59
484,412	56101,2
484,616	55419,23
484,821	54964,58
485,025	53541,24
485,229	54423,92
485,433	54622,57
485,637	55810,39
485,841	55828,82
486,045	56383,82
486,249	57153,86
486,453	57432,38
486,657	57665,85
486,861	58419,5
487,065	57168,19
487,269	58339,63
487,473	58169,65
487,677	59111,72
487,881	59681,05
488,085	60098,84
488,289	61051,14
488,493	60557,58
488,697	62255,35
488,901	62001,4
489,105	61980,92
489,309	62034,17
489,512	61513,98
489,716	61829,37
489,92	61495,55
490,124	61135,11
490,328	61337,86
490,531	60467,47
490,735	60494,1
490,939	60598,54
491,143	60530,96
491,346	60684,56
491,55	61335,81
491,754	61243,65
491,958	61589,76
492,161	61315,33
492,365	61784,32
492,569	61544,7
492,772	61382,91
492,976	62130,42
493,18	62173,43
493,383	62859,5
493,587	62867,69
493,79	62703,85
493,994	61823,23
494,197	62503,15
494,401	62429,43
494,605	62220,53
494,808	63006,95
495,012	62148,85
495,215	62146,81
495,419	62875,88
495,622	61999,35
495,825	62394,61
496,029	61892,86
496,232	62580,98
496,436	61352,19
496,639	62038,26
496,843	60735,76
497,046	61188,36
497,249	60897,55
497,453	60399,89
497,656	60621,07
497,859	60432,66
498,063	60707,08
498,266	60696,84
498,469	60059,93
498,673	59443,49
498,876	59441,44
499,079	59603,23
499,282	57827,64
499,485	58691,88
499,689	57938,23
499,892	57684,28
500,095	57327,94
500,298	57676,09
500,501	56717,64
500,705	57686,33
500,908	57190,72
501,111	57512,25
501,314	57239,87
501,517	57502,01
501,72	57680,19
501,923	57092,42
502,126	57534,78
502,329	57913,65
502,532	56555,85
502,735	57100,61
502,938	56992,07
503,141	56768,84
503,344	57125,19
503,547	56537,42
503,75	57323,84
503,953	57645,37
504,156	58249,52
504,359	57901,37
504,562	57927,99
504,765	58534,19
504,968	58108,21
505,17	58016,05
505,373	57596,22
505,576	58181,94
505,779	57536,83
505,982	57553,21
506,185	57862,46
506,387	57137,47
506,59	56432,97
506,793	57065,8
506,996	56439,12
507,198	57545,02
507,401	56934,73
507,604	57438,53
507,807	57796,92
508,009	57846,07
508,212	57155,91
508,415	57385,28
508,617	56998,21
508,82	56641,87
509,022	56136,02
509,225	56891,72
509,428	56856,9
509,63	57145,67
509,833	56670,54
510,035	58095,92
510,238	56754,5
510,44	58102,07
510,643	57770,3
510,845	57569,6
511,048	56869,19
511,25	56678,73
511,453	56316,24
511,655	56979,78
511,858	56308,05
512,06	56285,52
512,262	55968,08
512,465	55216,48
512,667	55464,28
512,87	55259,49
513,072	54405,48
513,274	55267,68
513,477	55638,36
513,679	55206,24
513,881	55380,32
514,084	55554,39
514,286	55011,68
514,488	55155,04
514,69	55589,21
514,893	54178,16
515,095	53344,64
515,297	52322,7
515,499	51427,74
515,701	51063,2
515,904	50641,32
516,106	50602,41
516,308	51069,34
516,51	50987,42
516,712	50645,41
516,914	50395,56
517,116	51083,68
517,318	51093,92
517,52	50489,77
517,722	50880,93
517,925	51194,27
518,127	52343,18
518,329	52046,22
518,531	52556,17
518,733	53010,82
518,935	53934,45
519,136	53850,48
519,338	53713,27
519,54	53956,98
519,742	53965,17
519,944	54430,06
520,146	54731,11
520,348	54944,1
520,55	54825,32
520,752	54749,54
520,954	55034,21
521,155	54120,82
521,357	54524,27
521,559	54276,46
521,761	54499,69
521,963	53803,38
522,164	54684,01
522,366	54661,48
522,568	55122,27
522,77	54681,96
522,971	56215,89
523,173	55630,17
523,375	55978,32
523,576	55337,31
523,778	54710,63
523,98	55490,91
524,181	55449,95
524,383	54776,17
524,584	55177,57
524,786	54016,37
524,988	52801,92
525,189	52318,6
525,391	51691,93
525,592	51474,84
525,794	50659,75
525,995	50713
526,197	50903,46
526,398	50653,61
526,6	51370,39
526,801	51380,63
527,003	51612,06
527,204	51911,06
527,406	52607,37
527,607	52572,55
527,808	52545,93
528,01	52017,55
528,211	52371,85
528,412	52556,17
528,614	51937,68
528,815	51988,88
529,016	52613,51
529,218	52269,45
529,419	52459,91
529,62	52439,43
529,822	52066,7
530,023	52564,36
530,224	52289,93
530,425	51814,8
530,626	51460,51
530,828	50600,36
531,029	51200,41
531,23	49566,13
531,431	49283,51
531,632	49043,9
531,833	48992,7
532,035	48613,83
532,236	48992,7
532,437	49215,93
532,638	48771,52
532,839	48714,18
533,04	48843,2
533,241	48376,26
533,442	48759,23
533,643	48198,09
533,844	48402,89
534,045	48705,99
534,246	48689,6
534,447	49217,98
534,648	49377,72
534,849	49060,29
535,05	48431,56
535,251	48077,26
535,451	48054,73
535,652	47759,83
535,853	47464,92
536,054	47053,28
536,255	47522,26
536,456	46961,12
536,657	47755,73
536,857	46682,59
537,058	47176,15
537,259	47202,78
537,46	46709,22
537,66	46561,76
537,861	46199,27
538,062	45818,35
538,263	45718
538,463	44999,16
538,664	45289,98
538,865	44134,92
539,065	44653,06
539,266	43510,29
539,466	44292,61
539,667	43620,88
539,868	43856,4
540,068	43667,98
540,269	43364,88
540,469	44253,7
540,67	43309,59
540,87	43319,83
541,071	43923,98
541,271	43268,63
541,472	43452,95
541,672	43100,7
541,873	42834,46
542,073	42076,71
542,274	43135,51
542,474	42881,56
542,675	43106,84
542,875	43731,47
543,075	43332,12
543,276	42672,67
543,476	43508,24
543,676	42469,92
543,877	42650,14
544,077	42353,19
544,277	42586,66
544,478	42637,86
544,678	42695,2
544,878	42021,42
545,078	42246,69
545,279	42097,19
545,479	41972,27
545,679	42052,14
545,879	41867,82
546,079	41652,78
546,28	41847,34
546,48	40979
546,68	41144,89
546,88	40933,95
547,08	40929,85
547,28	40739,39
547,48	40491,58
547,68	40780,35
547,88	40448,58
548,081	40995,39
548,281	41286,2
548,481	40532,54
548,681	40882,75
548,881	40852,03
549,081	40516,16
549,28	39940,68
549,48	40815,16
549,68	40229,44
549,88	40610,37
550,08	40022,6
550,28	40315,46
550,48	40213,06
550,68	40475,2
550,88	39942,73
551,08	39363,15
551,279	40024,65
551,479	39430,74
551,679	39178,84
551,879	39363,15
552,079	39293,52
552,278	39434,83
552,478	39389,78
552,678	39311,95
552,878	39613,01
553,077	39490,13
553,277	38949,46
553,477	39068,25
553,676	39051,86
553,876	39256,66
554,076	38865,5
554,275	38996,57
554,475	38244,96
554,674	39078,49
554,874	38632,03
555,074	38109,8
555,273	38429,28
555,473	38337,12
555,672	37825,13
555,872	37554,8
556,071	37499,5
556,271	37069,43
556,47	37370,48
556,67	37126,77
556,869	36860,54
557,068	36784,76
557,268	36274,82
557,467	36409,98
557,667	36285,06
557,866	35562,12
558,065	35844,74
558,265	35435,15
558,464	34953,88
558,663	35760,78
558,863	34843,29
559,062	35371,66
559,261	35330,7
559,461	35547,79
559,66	35211,92
559,859	35435,15
560,058	35486,35
560,258	35220,11
560,457	34544,28
560,656	35179,15
560,855	34781,85
561,054	35046,04
561,253	34448,03
561,453	34957,97
561,652	34896,53
561,851	34753,18
562,05	34828,95
562,249	34581,15
562,448	34744,98
562,647	34376,35
562,846	34546,33
563,045	34040,48
563,244	33839,78
563,443	34816,66
563,642	33815,21
563,841	33819,3
564,04	33370,8
564,239	34134,69
564,438	33090,23
564,637	33381,04
564,836	33055,41
565,035	32625,34
565,234	32758,45
565,432	32373,44
565,631	32490,17
565,83	33262,26
566,029	32641,72
566,228	32856,76
566,427	32694,97
566,625	32766,65
566,824	31974,08
567,023	32537,27
567,222	32205,5
567,42	32142,02
567,619	31533,77
567,818	31498,95
568,016	31316,68
568,215	31668,94
568,414	31683,27
568,612	31644,36
568,811	31447,75
569,01	31369,93
569,208	30866,13
569,407	31011,54
569,605	29891,3
569,804	30728,92
570,002	30165,73
570,201	30128,86
570,4	29934,31
570,598	30143,2
570,797	29889,25
570,995	30423,77
571,193	30214,88
571,392	30444,25
571,59	30378,72
571,789	30454,49
571,987	29813,48
572,186	30102,24
572,384	30079,71
572,582	30245,6
572,781	29989,6
572,979	29528,81
573,177	30374,62
573,376	29891,3
573,574	29774,56
573,772	29934,31
573,971	29311,72
574,169	29219,56
574,367	29342,44
574,565	29344,49
574,763	28789,49
574,962	28662,52
575,16	28648,18
575,358	28918,51
575,556	28340,99
575,754	28834,55
575,952	28547,83
576,151	28773,11
576,349	28214,01
576,547	28478,2
576,745	28414,71
576,943	28277,5
577,141	28263,16
577,339	28046,08
577,537	27769,6
577,735	27712,26
577,933	27665,16
578,131	27980,54
578,329	27945,73
578,527	27980,54
578,725	28523,26
578,923	28318,46
579,121	28007,17
579,319	28412,67
579,516	28500,73
579,714	28467,96
579,912	28431,1
580,11	28343,03
580,308	28349,18
580,506	28619,51
580,704	28203,77
580,901	28658,42
581,099	29014,77
581,297	28842,74
581,495	28648,18
581,692	29061,87
581,89	28699,38
582,088	28773,11
582,285	28855,03
582,483	29039,34
582,681	29395,69
582,878	28945,14
583,076	28629,75
583,274	28947,18
583,471	28715,76
583,669	28859,12
583,866	28451,58
584,064	28918,51
584,262	28228,35
584,459	28510,97
584,657	28107,52
584,854	28400,38
585,052	27323,15
585,249	27636,48
585,447	28117,76
585,644	27642,63
585,841	27859,71
586,039	28070,65
586,236	27984,64
586,434	27955,97
586,631	27681,54
586,828	27618,05
587,026	27495,18
587,223	27699,97
587,42	27077,39
587,618	27132,68
587,815	26338,07
588,012	25834,27
588,21	25383,72
588,407	25293,61
588,604	24961,84
588,801	24810,29
588,999	24955,69
589,196	25316,14
589,393	25602,85
589,59	25586,47
589,787	25531,17
589,984	25742,11
590,182	25447,21
590,379	25692,96
590,576	25332,52
590,773	25735,97
590,97	25449,25
591,167	25905,95
591,364	25289,51
591,561	25774,88
591,758	25486,12
591,955	25844,51
592,152	25848,61
592,349	25465,64
592,546	25545,51
592,743	25391,91
592,94	25213,74
593,137	25498,41
593,334	25350,95
593,531	25250,6
593,727	25156,39
593,924	25086,76
594,121	24759,09
594,318	24912,69
594,515	24441,65
594,712	24644,4
594,908	24613,68
595,105	24924,97
595,302	24382,26
595,499	25082,67
595,696	24578,87
595,892	24671,03
596,089	24648,5
596,286	24628,02
596,482	24499
596,679	24505,14
596,876	24304,44
597,072	24116,03
597,269	24261,43
597,466	24060,73
597,662	23583,55
597,859	24005,44
598,055	23587,65
598,252	23585,6
598,448	23968,57
598,645	23532,36
598,841	23573,31
599,038	23692,1
599,234	23464,77
599,431	23102,28
599,627	23008,08
599,824	23585,6
600,02	23235,4
600,217	23106,38
600,413	22901,58
600,609	22829,9
600,806	22649,68
601,002	23022,41
601,198	22874,96
601,395	22639,44
601,591	22633,3
601,787	22780,75
601,984	22457,17
602,18	23259,98
602,376	23096,14
602,572	22874,96
602,769	22973,26
602,965	22874,96
603,161	23030,6
603,357	22825,81
603,553	22821,71
603,75	22848,33
603,946	22696,78
604,142	22952,78
604,338	22795,09
604,534	22979,4
604,73	22467,41
604,926	22631,25
605,122	22700,88
605,318	22471,51
605,514	22614,87
605,71	22641,49
605,906	22471,51
606,102	22565,71
606,298	22840,14
606,494	22784,85
606,69	22778,7
606,886	22625,11
607,082	22346,58
607,278	22903,63
607,474	22655,82
607,67	22379,35
607,866	22115,16
608,062	22729,55
608,257	22463,32
608,453	22494,04
608,649	22594,39
608,845	22274,9
609,041	22178,65
609,236	22199,13
609,432	22094,68
609,628	22520,66
609,824	22410,07
610,019	22203,22
610,215	22426,45
610,411	22739,79
610,606	22414,16
610,802	22199,13
610,998	22547,28
611,193	22715,22
611,389	22268,76
611,584	22176,6
611,78	22334,29
611,976	22455,12
612,171	22643,54
612,367	22412,12
612,562	22279
612,758	22119,26
612,953	21994,33
613,149	22235,99
613,344	22129,5
613,539	22707,02
613,735	22348,63
613,93	22512,47
614,126	22565,71
614,321	22807,37
614,517	22565,71
614,712	22252,38
614,907	22156,12
615,103	22334,29
615,298	21959,52
615,493	22463,32
615,688	22094,68
615,884	22377,3
616,079	21789,53
616,274	22276,95
616,47	21994,33
616,665	22385,49
616,86	22129,5
617,055	22405,97
617,25	22420,31
617,445	22602,58
617,641	22197,08
617,836	22580,05
618,031	22506,32
618,226	22590,29
618,421	22297,43
618,616	22932,3
618,811	22553,43
619,006	23024,46
619,201	22420,31
619,396	22707,02
619,591	22334,29
619,786	22920,01
619,981	22209,37
620,176	22637,39
620,371	22086,49
620,566	22391,64
620,761	22178,65
620,956	22240,09
621,151	22047,58
621,346	22504,28
621,541	21910,36
621,735	22139,74
621,93	21486,43
622,125	21898,08
622,32	21300,07
622,515	21650,27
622,709	21437,28
622,904	21406,56
623,099	21330,79
623,294	21195,62
623,488	21164,9
623,683	21169
623,878	20675,44
624,072	20892,52
624,267	20390,77
624,462	20677,49
624,656	20429,68
624,851	20554,61
625,046	20093,82
625,24	20200,31
625,435	20120,44
625,629	20220,79
625,824	20396,92
626,018	20335,48
626,213	19835,77
626,407	20145,02
626,602	19610,5
626,796	19684,22
626,991	19579,78
627,185	18910,09
627,38	18670,48
627,574	18561,94
627,768	18555,79
627,963	18918,28
628,157	18703,25
628,352	18942,86
628,546	18463,63
628,74	18684,81
628,935	18379,67
629,129	18387,86
629,323	18467,73
629,517	18338,71
629,712	18338,71
629,906	18197,4
630,1	18422,67
630,294	18570,13
630,489	18465,68
630,683	18494,35
630,877	18221,97
631,071	18099,09
631,265	18314,13
631,459	18523,02
631,653	18316,18
631,848	18305,94
632,042	18488,21
632,236	18725,77
632,43	18654,09
632,624	18322,32
632,818	18518,93
633,012	18330,51
633,206	17978,26
633,4	18688,91
633,594	18224,02
633,788	18301,84
633,982	18623,37
634,176	18600,85
634,369	18387,86
634,563	18813,84
634,757	18572,18
634,951	18506,64
635,145	18246,55
635,339	18316,18
635,533	18191,25
635,726	18402,19
635,92	18396,05
636,114	18400,15
636,308	18332,56
636,501	18516,88
636,695	18242,45
636,889	18594,7
637,083	18283,41
637,276	18236,31
637,47	18404,24
637,664	18404,24
637,857	18523,02
638,051	18377,62
638,244	18463,63
638,438	18168,73
638,632	18643,85
638,825	18412,43
639,019	18119,57
639,212	18217,88
639,406	17867,67
639,599	17992,6
639,793	18105,24
639,986	17894,3
640,18	17902,49
640,373	17959,83
640,567	17593,25
640,76	18017,18
640,954	17832,86
641,147	17529,76
641,34	17476,51
641,534	17765,28
641,727	17570,72
641,92	17570,72
642,114	17513,38
642,307	17836,95
642,5	17812,38
642,694	17570,72
642,887	17410,98
643,08	17521,57
643,273	17621,92
643,467	17413,02
643,66	17456,03
643,853	17646,49
644,046	17589,15
644,239	17675,16
644,432	17433,5
644,626	17529,76
644,819	17357,73
645,012	17429,41
645,205	17277,86
645,398	16995,24
645,591	17165,22
645,784	16724,91
645,977	16929,7
646,17	17058,73
646,363	16657,32
646,556	16722,86
646,749	16911,27
646,942	16944,04
647,135	16577,45
647,328	16690,09
647,521	16696,24
647,714	16456,62
647,907	16700,33
648,099	16538,54
648,292	16518,06
648,485	16468,91
648,678	16212,92
648,871	16096,18
649,064	16184,24
649,256	16079,8
649,449	16085,94
649,642	16024,5
649,835	16364,46
650,027	16358,32
650,22	16276,4
650,413	16296,88
650,605	16597,93
650,798	16395,18
650,991	15977,4
651,183	16120,76
651,376	15999,93
651,568	16217,01
651,761	15883,19
651,954	16174
652,146	16147,38
652,339	16016,31
652,531	16249,78
652,724	16182,2
652,916	15754,17
653,109	16137,14
653,301	15961,02
653,494	15817,66
653,686	15889,34
653,879	16057,27
654,071	15565,76
654,263	15606,72
654,456	15641,53
654,648	15530,94
654,84	15047,62
655,033	14951,37
655,225	14861,26
655,417	14154,71
655,61	13919,19
655,802	13898,71
655,994	13597,66
656,186	13679,58
656,379	13804,5
656,571	14336,98
656,763	14054,36
656,955	14087,12
657,148	14531,53
657,34	14523,34
657,532	14605,26
657,724	14896,07
657,916	14752,71
658,108	14889,93
658,3	14885,83
658,492	14949,32
658,684	14644,17
658,876	14808,01
659,068	14730,19
659,26	15016,9
659,452	14896,07
659,644	15145,92
659,836	15021
660,028	15045,57
660,22	14867,4
660,412	15107,01
660,604	14906,31
660,796	15098,82
660,988	15035,33
661,18	15092,68
661,372	14842,82
661,563	14824,39
661,755	14730,19
661,947	15123,4
662,139	14920,65
662,331	15143,88
662,522	14767,05
662,714	14855,11
662,906	14857,16
663,097	14713,8
663,289	14738,38
663,481	14648,27
663,673	14472,14
663,864	14715,85
664,056	14371,79
664,247	14588,88
664,439	14394,32
664,631	14883,78
664,822	14756,81
665,014	14547,92
665,205	14664,65
665,397	14410,7
665,588	14515,15
665,78	14635,98
665,971	14379,98
666,163	14343,12
666,354	14418,89
666,546	14466
666,737	14197,71
666,929	14455,76
667,12	14279,63
667,311	14220,24
667,503	14181,33
667,694	14347,22
667,885	14085,08
668,077	14334,93
668,268	14224,34
668,459	14222,29
668,651	14109,65
668,842	14011,35
669,033	14146,51
669,224	14064,6
669,416	14005,2
669,607	14035,92
669,798	13980,63
669,989	14025,68
670,18	13943,77
670,371	14003,16
670,563	13579,23
670,754	13784,02
670,945	13626,33
671,136	13958,1
671,327	13556,7
671,518	13636,57
671,709	13562,84
671,9	13773,78
672,091	13609,95
672,282	13657,05
672,473	13439,97
672,664	13671,39
672,855	13595,61
673,046	13411,29
673,237	13665,24
673,428	13652,95
673,619	13145,06
673,809	13231,07
674	13353,95
674,191	13495,26
674,382	13306,85
674,573	13329,38
674,764	13296,61
674,954	13489,12
675,145	13134,82
675,336	13343,71
675,527	13444,06
675,717	13315,04
675,908	12989,41
676,099	13366,24
676,289	13179,87
676,48	13151,2
676,671	12962,79
676,861	12985,32
677,052	12923,88
677,243	13063,14
677,433	12852,2
677,624	13104,1
677,814	12651,5
678,005	13001,7
678,195	12819,43
678,386	13009,89
678,576	12954,6
678,767	12774,38
678,957	12704,74
679,148	12762,09
679,338	12678,12
679,529	12958,69
679,719	12729,32
679,909	13110,24
680,1	12618,73
680,29	13001,7
680,481	12643,31
680,671	12663,79
680,861	12659,69
681,052	12921,83
681,242	12432,36
681,432	12608,49
681,622	12315,63
681,813	12372,97
682,003	12456,94
682,193	12452,84
682,383	12639,21
682,573	12438,51
682,764	12469,23
682,954	12581,87
683,144	12397,55
683,334	12303,34
683,524	12205,04
683,714	12286,96
683,904	12131,31
684,094	12037,11
684,284	11944,95
684,474	12178,42
684,664	11967,48
684,854	11953,14
685,044	11983,86
685,234	11961,33
685,424	11938,8
685,614	11779,06
685,804	11811,83
685,994	11500,54
686,184	10920,96
686,374	10427,4
686,564	9565,21
686,753	8985,63
686,943	8424,49
687,133	8088,62
687,323	8215,6
687,513	8537,13
687,702	8451,11
687,892	8651,81
688,082	8670,25
688,272	8926,24
688,461	8920,1
688,651	8569,9
688,841	8498,22
689,03	8750,12
689,22	8332,33
689,41	8657,96
689,599	8481,83
689,789	8823,84
689,979	8885,28
690,168	9153,57
690,358	8944,67
690,547	9186,33
690,737	9307,16
690,926	9718,81
691,116	9415,71
691,305	9583,64
691,495	9686,04
691,684	9751,57
691,874	9896,98
692,063	9819,16
692,252	10077,2
692,442	10118,16
692,631	10099,73
692,82	10026
693,01	10208,27
693,199	10171,41
693,388	10095,63
693,578	10263,57
693,767	10456,08
693,956	10443,79
694,146	10097,68
694,335	10171,41
694,524	10310,67
694,713	10515,47
694,902	10390,54
695,092	10609,67
695,281	10316,81
695,47	10628,1
695,659	10294,29
695,848	10439,69
696,037	10259,47
696,226	10589,19
696,415	10550,28
696,604	10845,19
696,793	10757,13
696,982	10562,57
697,171	10564,62
697,36	10734,6
697,549	10615,82
697,738	10677,26
697,927	10443,79
698,116	10599,43
698,305	10273,81
698,494	10261,52
698,683	10542,09
698,872	10499,08
699,061	10193,94
699,25	10378,25
699,438	10050,58
699,627	10013,71
699,816	10157,07
700,005	10282
700,193	10138,64
700,382	10271,76
700,571	10093,58
700,76	10083,34
700,948	9903,12
701,137	9952,27
701,326	10116,11
701,514	10093,58
701,703	10152,98
701,892	9733,14
702,08	9770,01
702,269	9919,51
702,457	9911,32
702,646	9757,72
702,834	9874,45
703,023	9944,08
703,212	9911,32
703,4	9794,58
703,589	9743,38
703,777	10134,54
703,965	9929,75
704,154	9999,38
704,342	10040,34
704,531	10081,3
704,719	9792,53
704,907	10142,74
705,096	9942,03
705,284	9702,42
705,472	9856,02
705,661	9874,45
705,849	9917,46
706,037	9956,37
706,226	9712,66
706,414	9819,16
706,602	9835,54
706,79	9950,23
706,979	9817,11
707,167	9907,22
707,355	9591,83
707,543	9919,51
707,731	9731,09
707,919	9683,99
708,107	9346,08
708,296	9661,46
708,484	9452,57
708,672	9696,28
708,86	9663,51
709,048	9628,7
709,236	9735,19
709,424	9786,39
709,612	9589,78
709,8	9638,94
709,988	9536,54
710,176	9573,4
710,364	9618,46
710,551	9479,19
710,739	9440,28
710,927	9483,29
711,115	9411,61
711,303	9339,93
711,491	9346,08
711,679	9217,05
711,866	9155,61
712,054	9452,57
712,242	9196,57
712,43	9442,33
712,617	9055,26
712,805	8950,82
712,993	9161,76
713,181	9182,24
713,368	9311,26
713,556	9356,32
713,744	9292,83
713,931	9260,06
714,119	9069,6
714,306	9065,5
714,494	8920,1
714,682	8825,89
714,869	8971,3
715,057	8952,87
715,244	8932,39
715,432	8938,53
715,619	8723,49
715,807	8952,87
715,994	8596,52
716,182	8561,7
716,369	8504,36
716,556	8356,91
716,744	8221,74
716,931	8141,87
717,119	7894,07
717,306	7517,24
717,493	7545,91
717,681	7576,63
717,868	7496,76
718,055	7230,52
718,242	7271,48
718,43	7257,15
718,617	6986,82
718,804	6980,67
718,991	7033,92
719,179	7040,06
719,366	6788,16
719,553	7056,45
719,74	6714,44
719,927	6798,4
720,114	6734,92
720,301	6751,3
720,488	6693,96
720,676	6753,35
720,863	7054,4
721,05	7296,06
721,237	7496,76
721,424	7300,16
721,611	7578,68
721,798	7463,99
721,985	7355,45
722,172	7492,66
722,358	7330,87
722,545	7756,85
722,732	7504,95
722,919	7500,86
723,106	7316,54
723,293	7289,92
723,48	7162,94
723,667	6984,77
723,853	6908,99
724,04	7003,2
724,227	7134,27
724,414	6915,14
724,6	6898,75
724,787	6911,04
724,974	7017,54
725,161	6831,17
725,347	6853,7
725,534	6919,23
725,72	6900,8
725,907	6804,55
726,094	6831,17
726,28	6986,82
726,467	6589,51
726,653	6685,76
726,84	6943,81
727,027	6868,03
727,213	6624,33
727,4	6753,35
727,586	6675,52
727,773	6585,41
727,959	6446,15
728,145	6841,41
728,332	6865,99
728,518	6530,12
728,705	6683,72
728,891	6718,53
729,077	6579,27
729,264	6523,98
729,45	6554,69
729,636	6650,95
729,823	6558,79
730,009	6708,29
730,195	6642,76
730,382	6886,47
730,568	6630,47
730,754	6564,93
730,94	6630,47
731,126	6569,03
731,313	6550,6
731,499	6630,47
731,685	6642,76
731,871	6618,18
732,057	6675,52
732,243	7072,83
732,429	6843,46
732,615	6933,57
732,801	6714,44
732,987	6796,35
733,173	7029,82
733,359	6976,58
733,545	6876,23
733,731	6997,06
733,917	6988,86
734,103	6923,33
734,289	7029,82
734,475	6927,42
734,661	7177,28
734,847	7099,45
735,033	6995,01
735,219	6933,57
735,404	6870,08
735,59	6757,44
735,776	6923,33
735,962	6796,35
736,148	6894,66
736,333	6788,16
736,519	6716,48
736,705	6669,38
736,89	6726,72
737,076	6870,08
737,262	6786,12
737,447	6847,55
737,633	6804,55
737,819	6925,38
738,004	6724,68
738,19	6775,88
738,375	6720,58
738,561	6820,93
738,747	6650,95
738,932	6648,9
739,118	6575,17
739,303	6642,76
739,489	6616,13
739,674	6683,72
739,859	6462,54
740,045	6597,7
740,23	6661,19
740,416	6470,73
740,601	6683,72
740,786	6726,72
740,972	6597,7
741,157	6550,6
741,342	6270,03
741,528	6353,99
741,713	6300,75
741,898	6450,25
742,084	6317,13
742,269	6327,37
742,454	6585,41
742,639	6317,13
742,824	6321,23
743,01	6526,02
743,195	6523,98
743,38	6335,56
743,565	6562,89
743,75	6276,17
743,935	6331,47
744,12	6425,67
744,305	6104,14
744,49	6329,42
744,675	6229,07
744,86	6327,37
745,045	6161,48
745,23	6296,65
745,415	6261,84
745,6	6196,3
745,785	6149,2
745,97	6243,4
746,155	6341,71
746,34	6231,12
746,525	6089,81
746,71	6181,96
746,895	5987,41
747,079	6057,04
747,264	6298,7
747,449	6214,73
747,634	6233,16
747,819	6054,99
748,003	5796,95
748,188	6126,67
748,373	6151,24
748,557	6112,33
748,742	6075,47
748,927	5905,49
749,111	6126,67
749,296	5864,53
749,481	5905,49
749,665	5999,7
749,85	5792,85
750,034	6003,79
750,219	5956,69
750,404	5966,93
750,588	5700,69
750,773	5688,4
750,957	5893,2
751,141	5807,19
751,326	5737,56
751,51	5684,31
751,695	5614,68
751,879	5643,35
752,064	5801,04
752,248	5682,26
752,432	5755,99
752,617	5631,06
752,801	5637,2
752,985	5866,58
753,17	5676,12
753,354	5508,18
753,538	5481,56
753,722	5760,08
753,907	5510,23
754,091	5559,38
754,275	5465,18
754,459	5659,73
754,643	5563,48
754,828	5479,51
755,012	5432,41
755,196	5612,63
755,38	5432,41
755,564	5440,6
755,748	5397,59
755,932	5573,72
756,116	5481,56
756,3	5409,88
756,484	5510,23
756,668	5393,5
756,852	5172,32
757,036	5305,43
757,22	5334,11
757,404	5313,63
757,588	5233,75
757,772	5313,63
757,956	5186,65
758,14	5284,95
758,323	5180,51
758,507	5225,56
758,691	5162,08
758,875	5172,32
759,059	4944,99
759,242	4691,04
759,426	4037,74
759,61	3781,74
759,794	3478,65
759,977	2794,62
760,161	2401,41
760,345	2022,54
760,528	1868,94
760,712	1516,69
760,895	1318,04
761,079	1189,02
761,263	1150,11
761,446	1152,15
761,63	1399,96
761,813	1485,97
761,997	1549,46
762,18	1549,46
762,364	1612,95
762,547	1385,62
762,731	1410,2
762,914	1332,37
763,098	1225,88
763,281	1090,71
763,464	1072,28
763,648	1285,27
763,831	1170,58
764,015	1350,81
764,198	1361,05
764,381	1508,5
764,564	1588,37
764,748	1686,67
764,931	1764,5
765,114	1842,32
765,297	2028,68
765,481	2247,82
765,664	2262,15
765,847	2352,26
766,03	2534,53
766,213	2733,18
766,397	2841,73
766,58	2933,89
766,763	3075,2
766,946	3366,01
767,129	3511,41
767,312	3617,91
767,495	3736,69
767,678	3914,86
767,861	4035,69
768,044	4234,35
768,227	4308,07
768,41	4373,61
768,593	4396,14
768,776	4656,23
768,959	4736,1
769,142	4807,78
769,324	4842,59
769,507	4826,21
769,69	4770,91
769,873	4932,7
770,056	5028,96
770,239	5143,64
770,421	5045,34
770,604	5223,51
770,787	5305,43
770,97	5188,7
771,152	5149,79
771,335	5157,98
771,518	5037,15
771,7	5387,35
771,883	5317,72
772,066	5327,96
772,248	5317,72
772,431	5416,02
772,613	5364,82
772,796	5381,21
772,978	5258,33
773,161	5321,82
773,343	5307,48
773,526	5342,3
773,708	5391,45
773,891	5307,48
774,073	5213,28
774,256	5514,33
774,438	5438,55
774,621	5444,7
774,803	5442,65
774,985	5395,54
775,168	5401,69
775,35	5313,63
775,532	5405,78
775,715	5440,6
775,897	5178,46
776,079	5639,25
776,261	5323,87
776,444	5332,06
776,626	5229,66
776,808	5344,35
776,99	5401,69
777,173	5397,59
777,355	5301,34
777,537	5424,22
777,719	5137,5
777,901	5334,11
778,083	5289,05
778,265	5319,77
778,447	5106,78
778,629	5237,85
778,811	5280,86
778,993	5260,38
779,175	5289,05
779,357	5327,96
779,539	5063,77
779,721	5268,57
779,903	5157,98
780,085	5151,84
780,267	5217,37
780,449	5067,87
780,631	5198,94
780,812	5233,75
780,994	5088,35
781,176	5043,29
781,358	5028,96
781,54	5090,4
781,721	5037,15
781,903	5155,93
782,085	5108,83
782,267	5018,72
782,448	4908,13
782,63	5071,97
782,812	4996,19
782,993	4918,37
783,175	4879,46
783,357	4924,51
783,538	4877,41
783,72	4738,15
783,901	4611,17
784,083	4799,59
784,264	4787,3
784,446	4582,5
784,627	4824,16
784,809	4768,87
784,99	4519,01
785,172	4801,63
785,353	4512,87
785,535	4746,34
785,716	4598,88
785,897	4619,36
786,079	4648,04
786,26	4617,32
786,441	4729,95
786,623	4459,62
786,804	4383,85
786,985	4365,42
787,167	4447,33
787,348	4600,93
787,529	4426,86
787,71	4467,81
787,891	4207,72
788,073	4369,51
788,254	4107,37
788,435	4330,6
788,616	4291,69
788,797	4134
788,978	4181,1
789,159	4324,46
789,34	4310,12
789,522	4291,69
789,703	4185,19
789,884	4111,47
790,065	4039,79
790,246	4160,62
790,427	4068,46
790,607	4177
790,788	4115,56
790,969	4109,42
791,15	4109,42
791,331	4086,89
791,512	3910,77
791,693	4127,85
791,874	3910,77
792,054	4066,41
792,235	3982,45
792,416	3787,89
792,597	3898,48
792,778	3978,35
792,958	3939,44
793,139	3779,7
793,32	3761,27
793,5	3816,56
793,681	3761,27
793,862	3845,23
794,042	3628,15
794,223	3691,63
794,404	3679,35
794,584	3540,08
794,765	3544,18
794,945	3716,21
795,126	3591,28
795,306	3777,65
795,487	3574,9
795,667	3540,08
795,848	3757,17
796,028	3779,7
796,209	3587,19
796,389	3579
796,57	3609,72
796,75	3492,98
796,93	3605,62
797,111	3474,55
797,291	3458,17
797,471	3538,04
797,652	3540,08
797,832	3562,61
798,012	3480,69
798,192	3585,14
798,373	3452,02
798,553	3638,39
798,733	3556,47
798,913	3525,75
799,093	3394,68
799,274	3560,56
799,454	3482,74
799,634	3400,82
799,814	3499,13
799,994	3376,25
800,174	3343,48
800,354	3433,59
800,534	3304,57
800,714	3318,9
800,894	3302,52
801,074	3247,23
801,254	3314,81
801,434	3454,07
801,614	3368,06
801,794	3357,82
801,974	3943,53
802,154	3320,95
802,334	3290,23
802,514	3218,55
802,693	3304,57
802,873	3165,31
803,053	3218,55
803,233	3349,62
803,413	3177,59
803,592	3196,03
803,772	3159,16
803,952	3300,47
804,131	3161,21
804,311	3234,94
804,491	3138,68
804,67	3046,52
804,85	3062,91
805,03	3208,31
805,209	3056,76
805,389	3107,96
805,568	3021,95
805,748	3032,19
805,928	2980,99
806,107	3187,83
806,287	3091,58
806,466	3081,34
806,646	3011,71
806,825	3116,16
807,004	3048,57
807,184	3093,63
807,363	3081,34
807,543	3116,16
807,722	3056,76
807,901	3091,58
808,081	2999,42
808,26	2983,04
808,439	2878,59
808,619	3034,24
808,798	2911,36
808,977	2837,63
809,156	2954,37
809,336	2890,88
809,515	3042,43
809,694	2845,82
809,873	2798,72
810,052	2796,67
810,231	2919,55
810,411	2837,63
810,59	2786,43
810,769	2866,3
810,948	2790,53
811,127	2745,47
811,306	2811,01
811,485	2733,18
811,664	2833,54
811,843	2808,96
812,022	2698,37
812,201	2673,79
812,38	2661,51
812,559	2667,65
812,737	2671,75
812,916	2614,4
813,095	2620,55
813,274	2626,69
813,453	2581,64
813,632	2622,59
813,811	2581,64
813,989	2497,67
814,168	2405,51
814,347	2428,04
814,526	2362,5
814,704	2440,33
814,883	2438,28
815,062	2305,16
815,24	2278,54
815,419	2253,96
815,598	2387,08
815,776	2294,92
815,955	2178,19
816,133	2059,4
816,312	2143,37
816,49	2106,51
816,669	2071,69
816,847	2145,42
817,026	2018,44
817,204	2028,68
817,383	2059,4
817,561	1967,24
817,74	2075,79
817,918	2040,97
818,097	2063,5
818,275	2038,92
818,453	2077,83
818,632	1983,63
818,81	2088,07
818,988	2049,16
819,167	1948,81
819,345	2022,54
819,523	1987,72
819,701	2004,11
819,879	2088,07
820,058	1957
820,236	1979,53
820,414	1950,86
820,592	1932,43
820,77	2055,31
820,948	2055,31
821,127	2239,62
821,305	2049,16
821,483	2167,95
821,661	2202,76
821,839	2167,95
822,017	2110,6
822,195	2012,3
822,373	2155,66
822,551	2124,94
822,729	2032,78
822,907	1989,77
823,085	1860,75
823,262	1858,7
823,44	1676,43
823,618	1696,91
823,796	1639,57
823,974	1664,15
824,152	1686,67
824,329	1795,22
824,507	1957
824,685	1809,55
824,863	1881,23
825,04	2071,69
825,218	1961,1
825,396	2020,49
825,574	2057,36
825,751	2057,36
825,929	1995,92
826,107	1946,76
826,284	1911,95
826,462	1942,67
826,639	1928,33
826,817	1795,22
826,994	1864,85
827,172	1979,53
827,349	1942,67
827,527	1989,77
827,704	1946,76
827,882	1918,09
828,059	1895,57
828,237	1801,36
828,414	1811,6
828,591	1844,37
828,769	1787,02
828,946	1791,12
829,124	1827,98
829,301	1821,84
829,478	1834,13
829,655	1836,17
829,833	1811,6
830,01	1637,52
830,187	1744,02
830,364	1801,36
830,542	1885,33
830,719	1836,17
830,896	1784,98
831,073	1787,02
831,25	1821,84
831,427	1875,09
831,604	1782,93
831,782	1778,83
831,959	1746,06
832,136	1690,77
832,313	1731,73
832,49	1762,45
832,667	1744,02
832,844	1762,45
833,021	1725,58
833,198	1735,82
833,374	1674,39
833,551	1709,2
833,728	1692,82
833,905	1721,49
834,082	1610,9
834,259	1686,67
834,436	1760,4
834,612	1711,25
834,789	1688,72
834,966	1733,78
835,143	1850,51
835,319	1571,99
835,496	1662,1
835,673	1741,97
835,85	1682,58
836,026	1789,07
836,203	1795,22
836,38	1674,39
836,556	1692,82
836,733	1715,34
836,909	1707,15
837,086	1694,86
837,262	1588,37
837,439	1715,34
837,616	1756,3
837,792	1684,62
837,968	1674,39
838,145	1651,86
838,321	1617,04
838,498	1651,86
838,674	1801,36
838,851	1635,47
839,027	1645,71
839,203	1614,99
839,38	1588,37
839,556	1621,14
839,732	1682,58
839,909	1635,47
840,085	1655,95
840,261	1608,85
840,437	1614,99
840,614	1608,85
840,79	1690,77
840,966	1682,58
841,142	1578,13
841,318	1723,54
841,494	1614,99
841,671	1610,9
841,847	1549,46
842,023	1488,02
842,199	1592,47
842,375	1643,67
842,551	1508,5
842,727	1604,75
842,903	1520,79
843,079	1612,95
843,255	1598,61
843,431	1610,9
843,607	1565,84
843,783	1541,27
843,959	1557,65
844,134	1574,03
844,31	1547,41
844,486	1445,01
844,662	1393,81
844,838	1483,92
845,013	1463,44
845,189	1391,77
845,365	1520,79
845,541	1447,06
845,716	1465,49
845,892	1434,77
846,068	1440,92
846,244	1359
846,419	1440,92
846,595	1465,49
846,77	1395,86
846,946	1524,88
847,122	1338,52
847,297	1422,48
847,473	1391,77
847,648	1416,34
847,824	1356,95
847,999	1307,8
848,175	1352,85
848,35	1416,34
848,526	1305,75
848,701	1385,62
848,876	1463,44
849,052	1438,87
849,227	1242,26
849,403	1387,67
849,578	1361,05
849,753	1309,85
849,929	1379,48
850,104	1252,5
850,279	1189,02
850,454	1174,68
850,63	1260,7
850,805	1189,02
850,98	1146,01
851,155	1238,17
851,33	1309,85
851,505	1123,48
851,681	1205,4
851,856	1291,41
852,031	1197,21
852,206	1184,92
852,381	1211,54
852,556	1299,61
852,731	1195,16
852,906	1279,13
853,081	1193,11
853,256	1299,61
853,431	1240,22
853,606	1219,74
853,781	1240,22
853,956	1137,82
854,131	1244,31
854,305	1137,82
854,48	1096,86
854,655	980,12
854,83	1041,56
855,005	953,5
855,18	980,12
855,354	1004,7
855,529	1002,65
855,704	1057,95
855,879	1035,42
856,053	1131,67
856,228	1203,35
856,403	1103
856,577	1131,67
856,752	1047,71
856,926	1170,58
857,101	1127,58
857,276	1045,66
857,45	1115,29
857,625	1162,39
857,799	1148,06
857,974	1117,34
858,148	1201,3
858,323	1139,87
858,497	1119,39
858,672	1103
858,846	1002,65
859,02	1115,29
859,195	1115,29
859,369	1045,66
859,543	1098,91
859,718	1006,75
859,892	1123,48
860,066	1105,05
860,241	1035,42
860,415	1086,62
860,589	1055,9
860,763	953,5
860,938	1012,89
861,112	1031,32
861,286	1082,52
861,46	1031,32
861,634	922,78
861,808	1010,84
861,982	996,51
862,157	1076,38
862,331	1008,8
862,505	978,08
862,679	967,84
862,853	1047,71
863,027	918,68
863,201	967,84
863,375	918,68
863,549	973,98
863,722	1006,75
863,896	961,69
864,07	1025,18
864,244	1019,04
864,418	920,73
864,592	951,45
864,766	969,88
864,939	1031,32
865,113	973,98
865,287	976,03
865,461	951,45
865,634	908,44
865,808	951,45
865,982	904,35
866,156	896,16
866,329	916,64
866,503	900,25
866,676	869,53
866,85	767,13
867,024	775,33
867,197	834,72
867,371	789,66
867,544	750,75
867,718	767,13
867,891	959,64
868,065	869,53
868,238	892,06
868,412	906,4
868,585	933,02
868,759	847,01
868,932	916,64
869,105	861,34
869,279	926,88
869,452	838,81
869,625	795,81
869,799	840,86
869,972	828,57
870,145	806,05
870,319	861,34
870,492	836,77
870,665	799,9
870,838	785,57
871,011	771,23
871,185	842,91
871,358	769,18
871,531	902,3
871,704	859,29
871,877	836,77
872,05	746,66
872,223	801,95
872,396	748,7
872,569	720,03
872,742	771,23
872,915	826,53
873,088	695,46
873,261	881,82
873,434	832,67
873,607	787,61
873,78	840,86
873,953	730,27
874,126	769,18
874,299	806,05
874,471	787,61
874,644	717,98
874,817	806,05
874,99	773,28
875,163	767,13
875,335	732,32
875,508	711,84
875,681	752,8
875,853	705,7
876,026	666,78
876,199	758,94
876,371	713,89
876,544	691,36
876,717	730,27
876,889	654,5
877,062	720,03
877,234	679,07
877,407	662,69
877,579	736,42
877,752	697,5
877,924	662,69
878,097	638,11
878,269	752,8
878,442	734,37
878,614	689,31
878,786	679,07
878,959	697,5
879,131	711,84
879,303	711,84
879,476	644,26
879,648	681,12
879,82	693,41
879,993	681,12
880,165	658,59
880,337	693,41
880,509	693,41
880,681	603,3
880,854	650,4
881,026	664,74
881,198	699,55
881,37	570,53
881,542	574,63
881,714	648,35
881,886	564,39
882,058	535,71
882,23	535,71
882,402	636,06
882,574	636,06
882,746	654,5
882,918	648,35
883,09	629,92
883,262	586,91
883,434	623,78
883,606	521,38
883,778	593,06
883,95	742,56
884,122	496,8
884,293	609,44
884,465	580,77
884,637	621,73
884,809	625,83
884,98	615,59
885,152	566,43
885,324	601,25
885,496	513,19
885,667	613,54
885,839	541,86
886,011	658,59
886,182	570,53
886,354	582,82
886,525	627,87
886,697	576,67
886,869	572,58
887,04	502,95
887,212	615,59
887,383	570,53
887,555	533,67
887,726	478,37
887,897	572,58
888,069	548
888,24	507,04
888,412	457,89
888,583	513,19
888,754	517,28
888,926	464,04
889,097	558,24
889,268	490,66
889,44	537,76
889,611	476,32
889,782	439,46
889,953	498,85
890,125	529,57
890,296	486,56
890,467	527,52
890,638	517,28
890,809	461,99
890,98	500,9
891,151	494,76
891,323	656,54
891,494	490,66
891,665	453,8
891,836	496,8
892,007	519,33
892,178	527,52
892,349	461,99
892,52	416,93
892,691	466,08
892,862	414,88
893,032	375,97
893,203	455,84
893,374	439,46
893,545	535,71
893,716	529,57
893,887	486,56
894,057	466,08
894,228	464,04
894,399	394,4
894,57	513,19
894,74	386,21
894,911	427,17
895,082	453,8
895,253	488,61
895,423	461,99
895,594	459,94
895,764	380,07
895,935	345,25
896,106	425,12
896,276	402,6
896,447	461,99
896,617	367,78
896,788	330,92
896,958	412,84
897,129	316,58
897,299	400,55
897,47	441,51
897,64	310,44
897,81	324,77
897,981	404,64
898,151	283,81
898,322	398,5
898,492	418,98
898,662	335,01
898,832	347,3
899,003	302,25
899,173	369,83
899,343	320,68
899,513	300,2
